File: Data/CV_CRGO300517_1/PWRCCD_CRGO300517_1/CHARGE_DISCHARGE/CHARGE_#1.DTA
EXPLAIN
TAG	PWR800_CHARGE
TITLE	LABEL	PWR Cyclic Charge Discharge (Cell) - Charge Step	Test &Identifier
DATE	LABEL	3-7-2017	Date
TIME	LABEL	14:42:48	Time
NOTES	NOTES	3	&Notes...
	supercap test cell
	0.6mg
	6M KOH
PSTAT	PSTAT	IFC5000-01520	Potentiostat
CAPACITY	QUANT	1.00000E-003	Capacity (A-hr)
CELLTYPE	SELECTOR	1	&Cell Type
WORKINGCONNECTION	SELECTOR	0	&Working Lead
MAXCHARGETIME	VARIABLEANDUNITS	1.00000E+002	s	1.00000E+002	second(s)	Max &Charge Time
CHARGECURRENT	QUANT	6.00000E-004	&Charge Current (A)
VOLTAGEFINISH	TWOPARAM	F	1.00000E-003	3.60000E+003	&Voltage Finish	 I (A) < 	Max Time(s)
SAMPLETIME	QUANT	1.00000E-002	Sa&mple Period (s)
CHARGESTOPAT1	MULTIPARAM	4	1.00000E+000	Charge Stop At &1	Voltage > Limit	V
CHARGESTOPAT2	MULTIPARAM	0	0.00000E+000	Charge Stop At &2	None	N/A
AESBHCSELECTOR	TOGGLE	F	Save Both Half Cells
IRCOMP	TOGGLE	F	IR &Measure
EOC	QUANT	0	Open Circuit (V)
SEQUENCER	TOGGLE	TRUE	Run as Sequence
PSTATMODEL	IQUANT	53	Pstat Model
PSTATSECTION	LABEL	IFC5000-01520	Pstat Section
PSTATSERIALNO	LABEL	01520	Pstat Serial Number
CTRLMODE	IQUANT	0	Control Mode
ELECTROMETER	IQUANT	1	RE=0 or CS=1
IESTAB	IQUANT	0	I/E Stability
CASPEED	IQUANT	4	Control Amp Speed
CONVENTION	IQUANT	1	Current Convention
ICHRANGE	IQUANT	2	Ich Range
ICHRANGEMODE	TOGGLE	T	Ich Auto Range
ICHOFFSETENABLE	TOGGLE	F	Ich Offset Enable
ICHOFFSET	QUANT	0	Ich Offset (V)
ICHFILTER	IQUANT	1	Ich Filter
VCHRANGE	IQUANT	2	Vch Range
VCHRANGEMODE	TOGGLE	T	Vch Auto Range
VCHOFFSETENABLE	TOGGLE	F	Vch Offset Enable
VCHOFFSET	QUANT	0	Vch Offset (V)
VCHFILTER	IQUANT	1	Vch Filter
IERANGELOWERLIMIT	IQUANT	9	I/E Range Lower Limit
IERANGEMODE	TOGGLE	F	I/E AutoRange
IERANGE	IQUANT	9	I/E Range
ACHSELECT	IQUANT	1	Ach Select
ACHRANGE	IQUANT	2	Ach Range
ACHOFFSETENABLE	TOGGLE	F	Ach Offset Enable
ACHOFFSET	QUANT	0	Ach Offset (V)
ACHFILTER	IQUANT	1	Ach Filter
CABLEID	IQUANT	14	Cable ID
DCCALDATE	LABEL	20-10-2016	DC Calibration Date
ACCALDATE	LABEL	12/3/2015	AC Calibration Date
FRAMEWORKVERSION	QUANT	7.01	Framework Version
INSTRUMENTVERSION	LABEL	4.00	Instrument Version
EXPERIMENTABORTED	TOGGLE	T	Experiment Aborted
CURVE	TABLE	1270
	Pt	T	Vf	Im	Vu	Pwr	Sig	Ach	Temp	IERange	Over
	#	s	V	A	V	W	V	V	deg C	#	bits
	0	0.013333	3.62759E-001	5.99245E-004	0.00000E+000	2.17382E-004	3.59960E-001	3.62872E-001	3.57750E+000	9	...........
	3	0.053333	3.65327E-001	6.01778E-004	0.00000E+000	2.19846E-004	3.59960E-001	3.65412E-001	3.57750E+000	9	...........
	6	0.093333	3.67341E-001	6.01537E-004	0.00000E+000	2.20969E-004	3.59960E-001	3.67429E-001	3.57750E+000	9	...........
	9	0.133333	3.69162E-001	6.01385E-004	0.00000E+000	2.22009E-004	3.59960E-001	3.69251E-001	3.57750E+000	9	...........
	12	0.173333	3.70861E-001	6.01901E-004	0.00000E+000	2.23222E-004	3.59960E-001	3.70944E-001	3.57750E+000	9	...........
	15	0.213333	3.72492E-001	6.00357E-004	0.00000E+000	2.23628E-004	3.59960E-001	3.72579E-001	3.57750E+000	9	...........
	18	0.253333	3.74060E-001	6.00385E-004	0.00000E+000	2.24580E-004	3.59960E-001	3.74144E-001	3.57750E+000	9	...........
	21	0.293333	3.75592E-001	6.00482E-004	0.00000E+000	2.25536E-004	3.59960E-001	3.75676E-001	3.57750E+000	9	...........
	24	0.333333	3.77102E-001	6.01231E-004	0.00000E+000	2.26726E-004	3.59960E-001	3.77185E-001	3.57750E+000	9	...........
	27	0.373333	3.78573E-001	6.01802E-004	0.00000E+000	2.27826E-004	3.59960E-001	3.78661E-001	3.57750E+000	9	...........
	30	0.413333	3.80028E-001	6.00223E-004	0.00000E+000	2.28102E-004	3.59960E-001	3.80112E-001	3.57750E+000	9	...........
	33	0.453333	3.81463E-001	6.00806E-004	0.00000E+000	2.29186E-004	3.59960E-001	3.81549E-001	3.57750E+000	9	...........
	36	0.493333	3.82887E-001	6.00798E-004	0.00000E+000	2.30038E-004	3.59960E-001	3.82971E-001	3.57750E+000	9	...........
	39	0.533333	3.84285E-001	6.01802E-004	0.00000E+000	2.31264E-004	3.59960E-001	3.84371E-001	3.57750E+000	9	...........
	42	0.573333	3.85681E-001	6.00666E-004	0.00000E+000	2.31665E-004	3.59960E-001	3.85765E-001	3.57750E+000	9	...........
	45	0.613333	3.87067E-001	6.02139E-004	0.00000E+000	2.33068E-004	3.59960E-001	3.87155E-001	3.57750E+000	9	...........
	48	0.653333	3.88434E-001	6.00719E-004	0.00000E+000	2.33340E-004	3.59960E-001	3.88525E-001	3.57750E+000	9	...........
	51	0.693333	3.89799E-001	6.00510E-004	0.00000E+000	2.34078E-004	3.59960E-001	3.89883E-001	3.57750E+000	9	...........
	54	0.733333	3.91150E-001	6.01012E-004	0.00000E+000	2.35086E-004	3.59960E-001	3.91236E-001	3.57750E+000	9	...........
	57	0.773333	3.92510E-001	6.00868E-004	0.00000E+000	2.35847E-004	3.59960E-001	3.92596E-001	3.57750E+000	9	...........
	60	0.813333	3.93846E-001	6.00086E-004	0.00000E+000	2.36342E-004	3.59960E-001	3.93931E-001	3.57750E+000	9	...........
	63	0.853333	3.95180E-001	6.01527E-004	0.00000E+000	2.37712E-004	3.59960E-001	3.95267E-001	3.57750E+000	9	...........
	66	0.893333	3.96506E-001	5.99497E-004	0.00000E+000	2.37704E-004	3.59960E-001	3.96592E-001	3.57750E+000	9	...........
	69	0.933333	3.97833E-001	6.00156E-004	0.00000E+000	2.38762E-004	3.59960E-001	3.97917E-001	3.57540E+000	9	...........
	72	0.97333	3.99157E-001	6.01578E-004	0.00000E+000	2.40124E-004	3.59960E-001	3.99243E-001	3.57540E+000	9	...........
	75	1.01333	4.00465E-001	6.01099E-004	0.00000E+000	2.40719E-004	3.59960E-001	4.00556E-001	3.57540E+000	9	...........
	78	1.05333	4.01780E-001	6.00791E-004	0.00000E+000	2.41386E-004	3.59960E-001	4.01865E-001	3.57540E+000	9	...........
	81	1.09333	4.03079E-001	6.00457E-004	0.00000E+000	2.42032E-004	3.59960E-001	4.03173E-001	3.57540E+000	9	...........
	84	1.13333	4.04378E-001	6.01248E-004	0.00000E+000	2.43131E-004	3.59960E-001	4.04466E-001	3.57540E+000	9	...........
	87	1.17333	4.05683E-001	6.01640E-004	0.00000E+000	2.44075E-004	3.59960E-001	4.05771E-001	3.57540E+000	9	...........
	90	1.21333	4.06979E-001	6.01855E-004	0.00000E+000	2.44942E-004	3.59960E-001	4.07073E-001	3.57540E+000	9	...........
	93	1.25333	4.08272E-001	6.01175E-004	0.00000E+000	2.45443E-004	3.59960E-001	4.08364E-001	3.57540E+000	9	...........
	96	1.29333	4.09562E-001	6.01722E-004	0.00000E+000	2.46443E-004	3.59960E-001	4.09657E-001	3.57540E+000	9	...........
	99	1.33333	4.10839E-001	5.99919E-004	0.00000E+000	2.46470E-004	3.59960E-001	4.10932E-001	3.57540E+000	9	...........
	102	1.37333	4.12125E-001	6.01655E-004	0.00000E+000	2.47957E-004	3.59960E-001	4.12223E-001	3.57540E+000	9	...........
	105	1.41333	4.13398E-001	6.00818E-004	0.00000E+000	2.48377E-004	3.59960E-001	4.13487E-001	3.57540E+000	9	...........
	108	1.45333	4.14663E-001	6.00480E-004	0.00000E+000	2.48997E-004	3.59960E-001	4.14762E-001	3.57540E+000	9	...........
	111	1.49333	4.15938E-001	6.00933E-004	0.00000E+000	2.49951E-004	3.59960E-001	4.16038E-001	3.57540E+000	9	...........
	114	1.53333	4.17204E-001	6.01382E-004	0.00000E+000	2.50899E-004	3.59960E-001	4.17303E-001	3.57540E+000	9	...........
	117	1.57333	4.18478E-001	6.01155E-004	0.00000E+000	2.51570E-004	3.59960E-001	4.18578E-001	3.57540E+000	9	...........
	120	1.61333	4.19742E-001	6.00602E-004	0.00000E+000	2.52098E-004	3.59960E-001	4.19842E-001	3.57540E+000	9	...........
	123	1.65333	4.21001E-001	6.00011E-004	0.00000E+000	2.52606E-004	3.59960E-001	4.21095E-001	3.57540E+000	9	...........
	126	1.69333	4.22265E-001	6.00008E-004	0.00000E+000	2.53362E-004	3.59960E-001	4.22357E-001	3.57540E+000	9	...........
	129	1.73333	4.23527E-001	5.99988E-004	0.00000E+000	2.54111E-004	3.59960E-001	4.23625E-001	3.57540E+000	9	...........
	132	1.77333	4.24781E-001	6.01013E-004	0.00000E+000	2.55299E-004	3.59960E-001	4.24885E-001	3.57540E+000	9	...........
	135	1.81333	4.26028E-001	6.00362E-004	0.00000E+000	2.55771E-004	3.59960E-001	4.26128E-001	3.57540E+000	9	...........
	138	1.85333	4.27272E-001	6.01358E-004	0.00000E+000	2.56944E-004	3.59960E-001	4.27375E-001	3.57540E+000	9	...........
	141	1.89333	4.28532E-001	6.02307E-004	0.00000E+000	2.58108E-004	3.59960E-001	4.28630E-001	3.57540E+000	9	...........
	144	1.93333	4.29771E-001	5.99410E-004	0.00000E+000	2.57609E-004	3.59960E-001	4.29873E-001	3.57440E+000	9	...........
	147	1.97333	4.31016E-001	5.99895E-004	0.00000E+000	2.58564E-004	3.59960E-001	4.31117E-001	3.57440E+000	9	...........
	150	2.01333	4.32262E-001	6.01148E-004	0.00000E+000	2.59853E-004	3.59960E-001	4.32360E-001	3.57440E+000	9	...........
	153	2.05333	4.33498E-001	6.01126E-004	0.00000E+000	2.60587E-004	3.59960E-001	4.33597E-001	3.57440E+000	9	...........
	156	2.09333	4.34737E-001	6.00478E-004	0.00000E+000	2.61050E-004	3.59960E-001	4.34834E-001	3.57440E+000	9	...........
	159	2.13333	4.35968E-001	6.00419E-004	0.00000E+000	2.61763E-004	3.59960E-001	4.36070E-001	3.57440E+000	9	...........
	162	2.17333	4.37199E-001	6.01178E-004	0.00000E+000	2.62834E-004	3.59960E-001	4.37296E-001	3.57440E+000	9	...........
	165	2.21333	4.38433E-001	6.01024E-004	0.00000E+000	2.63509E-004	3.59960E-001	4.38523E-001	3.57440E+000	9	...........
	168	2.25333	4.39659E-001	6.00041E-004	0.00000E+000	2.63814E-004	3.59960E-001	4.39750E-001	3.57440E+000	9	...........
	171	2.29333	4.40882E-001	6.00498E-004	0.00000E+000	2.64749E-004	3.59960E-001	4.40986E-001	3.57440E+000	9	...........
	174	2.33333	4.42106E-001	6.00894E-004	0.00000E+000	2.65659E-004	3.59960E-001	4.42210E-001	3.57440E+000	9	...........
	177	2.37333	4.43328E-001	6.00860E-004	0.00000E+000	2.66378E-004	3.59960E-001	4.43432E-001	3.57440E+000	9	...........
	180	2.41333	4.44551E-001	6.01458E-004	0.00000E+000	2.67379E-004	3.59960E-001	4.44652E-001	3.57440E+000	9	...........
	183	2.45333	4.45761E-001	5.99516E-004	0.00000E+000	2.67241E-004	3.59960E-001	4.45858E-001	3.57440E+000	9	...........
	186	2.49333	4.46983E-001	6.01556E-004	0.00000E+000	2.68886E-004	3.59960E-001	4.47075E-001	3.57440E+000	9	...........
	189	2.53333	4.48195E-001	6.02329E-004	0.00000E+000	2.69961E-004	3.59960E-001	4.48298E-001	3.57440E+000	9	...........
	192	2.57333	4.49404E-001	6.00250E-004	0.00000E+000	2.69755E-004	3.59960E-001	4.49505E-001	3.57440E+000	9	...........
	195	2.61333	4.50610E-001	6.01192E-004	0.00000E+000	2.70903E-004	3.59960E-001	4.50715E-001	3.57440E+000	9	...........
	198	2.65333	4.51818E-001	6.01006E-004	0.00000E+000	2.71546E-004	3.59960E-001	4.51916E-001	3.57440E+000	9	...........
	201	2.69333	4.53032E-001	6.00144E-004	0.00000E+000	2.71884E-004	3.59960E-001	4.53133E-001	3.57440E+000	9	...........
	204	2.73333	4.54229E-001	6.00984E-004	0.00000E+000	2.72984E-004	3.59960E-001	4.54325E-001	3.57440E+000	9	...........
	207	2.77333	4.55431E-001	6.00562E-004	0.00000E+000	2.73515E-004	3.59960E-001	4.55530E-001	3.57440E+000	9	...........
	210	2.81333	4.56633E-001	6.00741E-004	0.00000E+000	2.74318E-004	3.59960E-001	4.56734E-001	3.57440E+000	9	...........
	213	2.85333	4.57841E-001	6.00473E-004	0.00000E+000	2.74921E-004	3.59960E-001	4.57938E-001	3.57440E+000	9	...........
	216	2.89333	4.59033E-001	5.99674E-004	0.00000E+000	2.75270E-004	3.59960E-001	4.59129E-001	3.57440E+000	9	...........
	219	2.93333	4.60227E-001	5.99988E-004	0.00000E+000	2.76131E-004	3.59960E-001	4.60326E-001	3.57470E+000	9	...........
	222	2.97333	4.61419E-001	6.01819E-004	0.00000E+000	2.77691E-004	3.59960E-001	4.61520E-001	3.57470E+000	9	...........
	225	3.01333	4.62606E-001	6.00331E-004	0.00000E+000	2.77717E-004	3.59960E-001	4.62705E-001	3.57470E+000	9	...........
	228	3.05333	4.63798E-001	6.01525E-004	0.00000E+000	2.78986E-004	3.59960E-001	4.63892E-001	3.57470E+000	9	...........
	231	3.09333	4.64986E-001	6.01579E-004	0.00000E+000	2.79726E-004	3.59960E-001	4.65085E-001	3.57470E+000	9	...........
	234	3.13333	4.66158E-001	6.00170E-004	0.00000E+000	2.79774E-004	3.59960E-001	4.66263E-001	3.57470E+000	9	...........
	237	3.17333	4.67345E-001	6.00087E-004	0.00000E+000	2.80448E-004	3.59960E-001	4.67446E-001	3.57470E+000	9	...........
	240	3.21333	4.68514E-001	5.98437E-004	0.00000E+000	2.80376E-004	3.59960E-001	4.68620E-001	3.57470E+000	9	...........
	243	3.25333	4.69700E-001	6.00812E-004	0.00000E+000	2.82202E-004	3.59960E-001	4.69805E-001	3.57470E+000	9	...........
	246	3.29333	4.70878E-001	6.01257E-004	0.00000E+000	2.83119E-004	3.59960E-001	4.70990E-001	3.57470E+000	9	...........
	249	3.33333	4.72055E-001	6.00576E-004	0.00000E+000	2.83505E-004	3.59960E-001	4.72159E-001	3.57470E+000	9	...........
	252	3.37333	4.73229E-001	6.01518E-004	0.00000E+000	2.84655E-004	3.59960E-001	4.73331E-001	3.57470E+000	9	...........
	255	3.41333	4.74405E-001	6.01552E-004	0.00000E+000	2.85379E-004	3.59960E-001	4.74506E-001	3.57470E+000	9	...........
	258	3.45333	4.75561E-001	6.00440E-004	0.00000E+000	2.85546E-004	3.59960E-001	4.75668E-001	3.57470E+000	9	...........
	261	3.49333	4.76730E-001	6.00730E-004	0.00000E+000	2.86386E-004	3.59960E-001	4.76837E-001	3.57470E+000	9	...........
	264	3.53333	4.77899E-001	5.99590E-004	0.00000E+000	2.86544E-004	3.59960E-001	4.78001E-001	3.57470E+000	9	...........
	267	3.57333	4.79057E-001	6.00406E-004	0.00000E+000	2.87629E-004	3.59960E-001	4.79164E-001	3.57470E+000	9	...........
	270	3.61333	4.80218E-001	6.01074E-004	0.00000E+000	2.88646E-004	3.59960E-001	4.80323E-001	3.57470E+000	9	...........
	273	3.65333	4.81372E-001	6.01002E-004	0.00000E+000	2.89305E-004	3.59960E-001	4.81480E-001	3.57470E+000	9	...........
	276	3.69333	4.82527E-001	6.00029E-004	0.00000E+000	2.89530E-004	3.59960E-001	4.82631E-001	3.57470E+000	9	...........
	279	3.73333	4.83675E-001	6.00380E-004	0.00000E+000	2.90389E-004	3.59960E-001	4.83777E-001	3.57470E+000	9	...........
	282	3.77333	4.84831E-001	6.00489E-004	0.00000E+000	2.91136E-004	3.59960E-001	4.84937E-001	3.57470E+000	9	...........
	285	3.81333	4.85981E-001	6.02109E-004	0.00000E+000	2.92613E-004	3.59960E-001	4.86088E-001	3.57470E+000	9	...........
	288	3.85333	4.87128E-001	6.00468E-004	0.00000E+000	2.92505E-004	3.59960E-001	4.87236E-001	3.57470E+000	9	...........
	291	3.89333	4.88277E-001	6.02204E-004	0.00000E+000	2.94043E-004	3.59960E-001	4.88383E-001	3.57470E+000	9	...........
	294	3.93333	4.89411E-001	6.02464E-004	0.00000E+000	2.94852E-004	3.59960E-001	4.89518E-001	3.57440E+000	9	...........
	297	3.97333	4.90555E-001	6.01657E-004	0.00000E+000	2.95146E-004	3.59960E-001	4.90665E-001	3.57440E+000	9	...........
	300	4.01333	4.91685E-001	5.99728E-004	0.00000E+000	2.94877E-004	3.59960E-001	4.91795E-001	3.57440E+000	9	...........
	303	4.05333	4.92827E-001	6.01554E-004	0.00000E+000	2.96462E-004	3.59960E-001	4.92939E-001	3.57440E+000	9	...........
	306	4.09333	4.93966E-001	6.00845E-004	0.00000E+000	2.96797E-004	3.59960E-001	4.94074E-001	3.57440E+000	9	...........
	309	4.13333	4.95099E-001	6.00453E-004	0.00000E+000	2.97284E-004	3.59960E-001	4.95202E-001	3.57440E+000	9	...........
	312	4.17333	4.96219E-001	6.00435E-004	0.00000E+000	2.97947E-004	3.59960E-001	4.96335E-001	3.57440E+000	9	...........
	315	4.21333	4.97358E-001	6.00866E-004	0.00000E+000	2.98845E-004	3.59960E-001	4.97463E-001	3.57440E+000	9	...........
	318	4.25333	4.98487E-001	6.00624E-004	0.00000E+000	2.99403E-004	3.59960E-001	4.98594E-001	3.57440E+000	9	...........
	321	4.29333	4.99614E-001	6.00350E-004	0.00000E+000	2.99943E-004	3.59960E-001	4.99721E-001	3.57440E+000	9	...........
	324	4.33333	5.00731E-001	6.01109E-004	0.00000E+000	3.00994E-004	3.59960E-001	5.00844E-001	3.57440E+000	9	...........
	327	4.37333	5.01848E-001	5.99682E-004	0.00000E+000	3.00949E-004	3.59960E-001	5.01961E-001	3.57440E+000	9	...........
	330	4.41333	5.02979E-001	6.01394E-004	0.00000E+000	3.02488E-004	3.59960E-001	5.03081E-001	3.57440E+000	9	...........
	333	4.45333	5.04091E-001	5.99558E-004	0.00000E+000	3.02232E-004	3.59960E-001	5.04194E-001	3.57440E+000	9	...........
	336	4.49333	5.05201E-001	6.01958E-004	0.00000E+000	3.04110E-004	3.59960E-001	5.05315E-001	3.57440E+000	9	...........
	339	4.53333	5.06304E-001	6.00051E-004	0.00000E+000	3.03808E-004	3.59960E-001	5.06418E-001	3.57440E+000	9	...........
	342	4.57333	5.07422E-001	6.01985E-004	0.00000E+000	3.05460E-004	3.59960E-001	5.07539E-001	3.57440E+000	9	...........
	345	4.61333	5.08531E-001	6.00469E-004	0.00000E+000	3.05357E-004	3.59960E-001	5.08642E-001	3.57440E+000	9	...........
	348	4.65333	5.09633E-001	6.00074E-004	0.00000E+000	3.05817E-004	3.59960E-001	5.09747E-001	3.57440E+000	9	...........
	351	4.69333	5.10736E-001	6.02130E-004	0.00000E+000	3.07530E-004	3.59960E-001	5.10849E-001	3.57440E+000	9	...........
	354	4.73333	5.11830E-001	6.01849E-004	0.00000E+000	3.08044E-004	3.59960E-001	5.11946E-001	3.57440E+000	9	...........
	357	4.77333	5.12941E-001	6.01515E-004	0.00000E+000	3.08542E-004	3.59960E-001	5.13047E-001	3.57440E+000	9	...........
	360	4.81333	5.14040E-001	6.00914E-004	0.00000E+000	3.08893E-004	3.59960E-001	5.14149E-001	3.57440E+000	9	...........
	363	4.85333	5.15126E-001	6.00249E-004	0.00000E+000	3.09204E-004	3.59960E-001	5.15243E-001	3.57440E+000	9	...........
	366	4.89333	5.16218E-001	6.00201E-004	0.00000E+000	3.09835E-004	3.59960E-001	5.16331E-001	3.57440E+000	9	...........
	369	4.93333	5.17317E-001	6.00290E-004	0.00000E+000	3.10540E-004	3.59960E-001	5.17424E-001	3.57440E+000	9	...........
	372	4.97333	5.18409E-001	6.01023E-004	0.00000E+000	3.11576E-004	3.59960E-001	5.18519E-001	3.57440E+000	9	...........
	375	5.01333	5.19493E-001	6.01571E-004	0.00000E+000	3.12512E-004	3.59960E-001	5.19603E-001	3.57440E+000	9	...........
	378	5.05333	5.20577E-001	6.00222E-004	0.00000E+000	3.12462E-004	3.59960E-001	5.20689E-001	3.57440E+000	9	...........
	381	5.09333	5.21658E-001	5.99997E-004	0.00000E+000	3.12993E-004	3.59960E-001	5.21770E-001	3.57440E+000	9	...........
	384	5.13333	5.22738E-001	6.00876E-004	0.00000E+000	3.14101E-004	3.59960E-001	5.22852E-001	3.57440E+000	9	...........
	387	5.17333	5.23815E-001	6.00299E-004	0.00000E+000	3.14445E-004	3.59960E-001	5.23929E-001	3.57440E+000	9	...........
	390	5.21333	5.24877E-001	6.00429E-004	0.00000E+000	3.15151E-004	3.59960E-001	5.25000E-001	3.57440E+000	9	...........
	393	5.25333	5.25950E-001	6.00589E-004	0.00000E+000	3.15880E-004	3.59960E-001	5.26070E-001	3.57440E+000	9	...........
	396	5.29333	5.27016E-001	6.00276E-004	0.00000E+000	3.16355E-004	3.59960E-001	5.27136E-001	3.57440E+000	9	...........
	399	5.33333	5.28102E-001	6.00695E-004	0.00000E+000	3.17228E-004	3.59960E-001	5.28216E-001	3.57440E+000	9	...........
	402	5.37333	5.29162E-001	6.01413E-004	0.00000E+000	3.18244E-004	3.59960E-001	5.29278E-001	3.57440E+000	9	...........
	405	5.41333	5.30226E-001	6.01391E-004	0.00000E+000	3.18873E-004	3.59960E-001	5.30341E-001	3.57440E+000	9	...........
	408	5.45333	5.31290E-001	6.01385E-004	0.00000E+000	3.19510E-004	3.59960E-001	5.31404E-001	3.57440E+000	9	...........
	411	5.49333	5.32350E-001	6.00437E-004	0.00000E+000	3.19643E-004	3.59960E-001	5.32420E-001	3.57440E+000	9	...........
	414	5.53333	5.33006E-001	5.99281E-004	0.00000E+000	3.19421E-004	3.59960E-001	5.33237E-001	3.57440E+000	9	...........
	417	5.57333	5.34094E-001	6.01542E-004	0.00000E+000	3.21280E-004	3.59960E-001	5.34259E-001	3.57440E+000	9	...........
	420	5.61333	5.35145E-001	5.99916E-004	0.00000E+000	3.21042E-004	3.59960E-001	5.35337E-001	3.57440E+000	9	...........
	423	5.65333	5.36180E-001	6.01356E-004	0.00000E+000	3.22435E-004	3.59960E-001	5.36427E-001	3.57440E+000	9	...........
	426	5.69333	5.37265E-001	6.00334E-004	0.00000E+000	3.22539E-004	3.59960E-001	5.37471E-001	3.57440E+000	9	...........
	429	5.73333	5.38311E-001	6.00297E-004	0.00000E+000	3.23146E-004	3.59960E-001	5.38521E-001	3.57440E+000	9	...........
	432	5.77333	5.39346E-001	6.00998E-004	0.00000E+000	3.24146E-004	3.59960E-001	5.39565E-001	3.57440E+000	9	...........
	435	5.81333	5.40419E-001	6.00091E-004	0.00000E+000	3.24301E-004	3.59960E-001	5.40606E-001	3.57440E+000	9	...........
	438	5.85333	5.41463E-001	6.01105E-004	0.00000E+000	3.25476E-004	3.59960E-001	5.41674E-001	3.57440E+000	9	...........
	441	5.89333	5.42487E-001	6.00937E-004	0.00000E+000	3.26001E-004	3.59960E-001	5.42701E-001	3.57440E+000	9	...........
	444	5.93333	5.43501E-001	5.99348E-004	0.00000E+000	3.25746E-004	3.59960E-001	5.43741E-001	3.57490E+000	9	...........
	447	5.97333	5.44529E-001	6.00348E-004	0.00000E+000	3.26907E-004	3.59960E-001	5.44761E-001	3.57490E+000	9	...........
	450	6.01333	5.45558E-001	6.00042E-004	0.00000E+000	3.27358E-004	3.59960E-001	5.45786E-001	3.57490E+000	9	...........
	453	6.05333	5.46595E-001	6.00171E-004	0.00000E+000	3.28050E-004	3.59960E-001	5.46792E-001	3.57490E+000	9	...........
	456	6.09333	5.47614E-001	6.00237E-004	0.00000E+000	3.28699E-004	3.59960E-001	5.47842E-001	3.57490E+000	9	...........
	459	6.13333	5.48628E-001	6.00998E-004	0.00000E+000	3.29725E-004	3.59960E-001	5.48834E-001	3.57490E+000	9	...........
	462	6.17333	5.49661E-001	6.00955E-004	0.00000E+000	3.30322E-004	3.59960E-001	5.49894E-001	3.57490E+000	9	...........
	465	6.21333	5.50674E-001	6.00003E-004	0.00000E+000	3.30406E-004	3.59960E-001	5.50912E-001	3.57490E+000	9	...........
	468	6.25333	5.51681E-001	6.00174E-004	0.00000E+000	3.31104E-004	3.59960E-001	5.51907E-001	3.57490E+000	9	...........
	471	6.29333	5.52710E-001	6.00876E-004	0.00000E+000	3.32110E-004	3.59960E-001	5.52930E-001	3.57490E+000	9	...........
	474	6.33333	5.53732E-001	6.00231E-004	0.00000E+000	3.32367E-004	3.59960E-001	5.53941E-001	3.57490E+000	9	...........
	477	6.37333	5.54721E-001	6.00719E-004	0.00000E+000	3.33231E-004	3.59960E-001	5.54952E-001	3.57490E+000	9	...........
	480	6.41333	5.55737E-001	5.99874E-004	0.00000E+000	3.33372E-004	3.59960E-001	5.55946E-001	3.57490E+000	9	...........
	483	6.45333	5.56731E-001	5.99693E-004	0.00000E+000	3.33868E-004	3.59960E-001	5.56966E-001	3.57490E+000	9	...........
	486	6.49333	5.57753E-001	6.00674E-004	0.00000E+000	3.35028E-004	3.59960E-001	5.57961E-001	3.57490E+000	9	...........
	489	6.53333	5.58758E-001	6.00765E-004	0.00000E+000	3.35682E-004	3.59960E-001	5.58970E-001	3.57490E+000	9	...........
	492	6.57333	5.59741E-001	6.00501E-004	0.00000E+000	3.36125E-004	3.59960E-001	5.59969E-001	3.57490E+000	9	...........
	495	6.61333	5.60728E-001	6.00643E-004	0.00000E+000	3.36797E-004	3.59960E-001	5.60978E-001	3.57490E+000	9	...........
	498	6.65333	5.61689E-001	6.01694E-004	0.00000E+000	3.37965E-004	3.59960E-001	5.61975E-001	3.57490E+000	9	...........
	501	6.69333	5.62746E-001	6.01488E-004	0.00000E+000	3.38485E-004	3.59960E-001	5.62977E-001	3.57490E+000	9	...........
	504	6.73333	5.63754E-001	6.01384E-004	0.00000E+000	3.39033E-004	3.59960E-001	5.63964E-001	3.57490E+000	9	...........
	507	6.77333	5.64732E-001	6.00135E-004	0.00000E+000	3.38915E-004	3.59960E-001	5.64929E-001	3.57490E+000	9	...........
	510	6.81333	5.65717E-001	6.00984E-004	0.00000E+000	3.39987E-004	3.59960E-001	5.65932E-001	3.57490E+000	9	...........
	513	6.85333	5.66696E-001	6.00379E-004	0.00000E+000	3.40233E-004	3.59960E-001	5.66916E-001	3.57490E+000	9	...........
	516	6.89333	5.67658E-001	6.01760E-004	0.00000E+000	3.41594E-004	3.59960E-001	5.67878E-001	3.57490E+000	9	...........
	519	6.93333	5.68624E-001	6.01492E-004	0.00000E+000	3.42023E-004	3.59960E-001	5.68860E-001	3.57460E+000	9	...........
	522	6.97333	5.69596E-001	6.00918E-004	0.00000E+000	3.42280E-004	3.59960E-001	5.69806E-001	3.57460E+000	9	...........
	525	7.01333	5.70581E-001	6.00378E-004	0.00000E+000	3.42565E-004	3.59960E-001	5.70796E-001	3.57460E+000	9	...........
	528	7.05333	5.71537E-001	6.01239E-004	0.00000E+000	3.43630E-004	3.59960E-001	5.71743E-001	3.57460E+000	9	...........
	531	7.09333	5.72515E-001	6.02004E-004	0.00000E+000	3.44656E-004	3.59960E-001	5.72707E-001	3.57460E+000	9	...........
	534	7.13333	5.73489E-001	6.01668E-004	0.00000E+000	3.45050E-004	3.59960E-001	5.73695E-001	3.57460E+000	9	...........
	537	7.17333	5.74442E-001	6.00512E-004	0.00000E+000	3.44959E-004	3.59960E-001	5.74641E-001	3.57460E+000	9	...........
	540	7.21333	5.75416E-001	6.00477E-004	0.00000E+000	3.45524E-004	3.59960E-001	5.75587E-001	3.57460E+000	9	...........
	543	7.25333	5.76361E-001	6.00823E-004	0.00000E+000	3.46291E-004	3.59960E-001	5.76567E-001	3.57460E+000	9	...........
	546	7.29333	5.77308E-001	6.00802E-004	0.00000E+000	3.46848E-004	3.59960E-001	5.77532E-001	3.57460E+000	9	...........
	549	7.33333	5.78251E-001	6.01048E-004	0.00000E+000	3.47556E-004	3.59960E-001	5.78480E-001	3.57460E+000	9	...........
	552	7.37333	5.79206E-001	6.01274E-004	0.00000E+000	3.48261E-004	3.59960E-001	5.79436E-001	3.57460E+000	9	...........
	555	7.41333	5.80149E-001	6.01837E-004	0.00000E+000	3.49155E-004	3.59960E-001	5.80393E-001	3.57460E+000	9	...........
	558	7.45333	5.81100E-001	6.02661E-004	0.00000E+000	3.50206E-004	3.59960E-001	5.81328E-001	3.57460E+000	9	...........
	561	7.49333	5.82056E-001	6.01040E-004	0.00000E+000	3.49839E-004	3.59960E-001	5.82258E-001	3.57460E+000	9	...........
	564	7.53333	5.82984E-001	5.99816E-004	0.00000E+000	3.49683E-004	3.59960E-001	5.83202E-001	3.57460E+000	9	...........
	567	7.57333	5.83915E-001	6.02037E-004	0.00000E+000	3.51538E-004	3.59960E-001	5.84161E-001	3.57460E+000	9	...........
	570	7.61333	5.84861E-001	6.00883E-004	0.00000E+000	3.51433E-004	3.59960E-001	5.85102E-001	3.57460E+000	9	...........
	573	7.65333	5.85776E-001	6.01066E-004	0.00000E+000	3.52090E-004	3.59960E-001	5.86003E-001	3.57460E+000	9	...........
	576	7.69333	5.86712E-001	6.00494E-004	0.00000E+000	3.52317E-004	3.59960E-001	5.86947E-001	3.57460E+000	9	...........
	579	7.73333	5.87652E-001	6.00939E-004	0.00000E+000	3.53142E-004	3.59960E-001	5.87928E-001	3.57460E+000	9	...........
	582	7.77333	5.88593E-001	6.00113E-004	0.00000E+000	3.53223E-004	3.59960E-001	5.88841E-001	3.57460E+000	9	...........
	585	7.81333	5.89513E-001	6.00121E-004	0.00000E+000	3.53779E-004	3.59960E-001	5.89743E-001	3.57460E+000	9	...........
	588	7.85333	5.90429E-001	5.99575E-004	0.00000E+000	3.54006E-004	3.59960E-001	5.90663E-001	3.57460E+000	9	...........
	591	7.89333	5.91348E-001	6.01787E-004	0.00000E+000	3.55865E-004	3.59960E-001	5.91601E-001	3.57460E+000	9	...........
	594	7.93333	5.92252E-001	6.01889E-004	0.00000E+000	3.56470E-004	3.59960E-001	5.92502E-001	3.57390E+000	9	...........
	597	7.97333	5.93166E-001	6.00755E-004	0.00000E+000	3.56348E-004	3.59960E-001	5.93427E-001	3.57390E+000	9	...........
	600	8.01333	5.94080E-001	6.00717E-004	0.00000E+000	3.56874E-004	3.59960E-001	5.94340E-001	3.57390E+000	9	...........
	603	8.05333	5.94990E-001	6.00116E-004	0.00000E+000	3.57064E-004	3.59960E-001	5.95250E-001	3.57390E+000	9	...........
	606	8.09333	5.95891E-001	6.00718E-004	0.00000E+000	3.57962E-004	3.59960E-001	5.96147E-001	3.57390E+000	9	...........
	609	8.13333	5.96784E-001	5.98506E-004	0.00000E+000	3.57178E-004	3.59960E-001	5.97027E-001	3.57390E+000	9	...........
	612	8.17333	5.97706E-001	6.01289E-004	0.00000E+000	3.59394E-004	3.59960E-001	5.97950E-001	3.57390E+000	9	...........
	615	8.21333	5.98598E-001	5.99350E-004	0.00000E+000	3.58770E-004	3.59960E-001	5.98830E-001	3.57390E+000	9	...........
	618	8.25333	5.99502E-001	6.01164E-004	0.00000E+000	3.60399E-004	3.59960E-001	5.99720E-001	3.57390E+000	9	...........
	621	8.29333	6.00375E-001	6.02223E-004	0.00000E+000	3.61560E-004	3.59960E-001	6.00636E-001	3.57390E+000	9	...........
	624	8.33333	6.01274E-001	6.00069E-004	0.00000E+000	3.60806E-004	3.59960E-001	6.01515E-001	3.57390E+000	9	...........
	627	8.37333	6.02161E-001	6.00860E-004	0.00000E+000	3.61814E-004	3.59960E-001	6.02420E-001	3.57390E+000	9	...........
	630	8.41333	6.03059E-001	6.00876E-004	0.00000E+000	3.62363E-004	3.59960E-001	6.03256E-001	3.57390E+000	9	...........
	633	8.45333	6.03951E-001	6.01068E-004	0.00000E+000	3.63016E-004	3.59960E-001	6.04178E-001	3.57390E+000	9	...........
	636	8.49333	6.04807E-001	6.01398E-004	0.00000E+000	3.63730E-004	3.59960E-001	6.05068E-001	3.57390E+000	9	...........
	639	8.53333	6.05663E-001	6.01923E-004	0.00000E+000	3.64563E-004	3.59960E-001	6.05960E-001	3.57390E+000	9	...........
	642	8.57333	6.06526E-001	6.01078E-004	0.00000E+000	3.64570E-004	3.59960E-001	6.06821E-001	3.57390E+000	9	...........
	645	8.61333	6.07429E-001	6.00828E-004	0.00000E+000	3.64960E-004	3.59960E-001	6.07686E-001	3.57390E+000	9	...........
	648	8.65333	6.08305E-001	6.00452E-004	0.00000E+000	3.65258E-004	3.59960E-001	6.08563E-001	3.57390E+000	9	...........
	651	8.69333	6.09168E-001	6.00498E-004	0.00000E+000	3.65804E-004	3.59960E-001	6.09426E-001	3.57390E+000	9	...........
	654	8.73333	6.10036E-001	6.00531E-004	0.00000E+000	3.66346E-004	3.59960E-001	6.10272E-001	3.57390E+000	9	...........
	657	8.77333	6.10918E-001	6.00383E-004	0.00000E+000	3.66785E-004	3.59960E-001	6.11148E-001	3.57390E+000	9	...........
	660	8.81333	6.11728E-001	6.00735E-004	0.00000E+000	3.67487E-004	3.59960E-001	6.12001E-001	3.57390E+000	9	...........
	663	8.85333	6.12601E-001	5.99169E-004	0.00000E+000	3.67052E-004	3.59960E-001	6.12871E-001	3.57390E+000	9	...........
	666	8.89333	6.13481E-001	5.99821E-004	0.00000E+000	3.67979E-004	3.59960E-001	6.13753E-001	3.57390E+000	9	...........
	669	8.93333	6.14403E-001	5.99865E-004	0.00000E+000	3.68559E-004	3.59960E-001	6.14590E-001	3.57390E+000	9	...........
	672	8.97333	6.15260E-001	6.01741E-004	0.00000E+000	3.70227E-004	3.59960E-001	6.15459E-001	3.57390E+000	9	...........
	675	9.01333	6.16105E-001	6.00201E-004	0.00000E+000	3.69786E-004	3.59960E-001	6.16301E-001	3.57390E+000	9	...........
	678	9.05333	6.16965E-001	6.00427E-004	0.00000E+000	3.70442E-004	3.59960E-001	6.17163E-001	3.57390E+000	9	...........
	681	9.09333	6.17761E-001	5.99385E-004	0.00000E+000	3.70277E-004	3.59960E-001	6.17997E-001	3.57390E+000	9	...........
	684	9.13333	6.18604E-001	6.00450E-004	0.00000E+000	3.71441E-004	3.59960E-001	6.18841E-001	3.57390E+000	9	...........
	687	9.17333	6.19457E-001	6.01854E-004	0.00000E+000	3.72823E-004	3.59960E-001	6.19624E-001	3.57390E+000	9	...........
	690	9.21333	6.20326E-001	6.00182E-004	0.00000E+000	3.72309E-004	3.59960E-001	6.20482E-001	3.57390E+000	9	...........
	693	9.25333	6.21123E-001	5.99775E-004	0.00000E+000	3.72534E-004	3.59960E-001	6.21322E-001	3.57390E+000	9	...........
	696	9.29333	6.21972E-001	6.00404E-004	0.00000E+000	3.73434E-004	3.59960E-001	6.22187E-001	3.57390E+000	9	...........
	699	9.33333	6.22766E-001	6.00317E-004	0.00000E+000	3.73857E-004	3.59960E-001	6.22989E-001	3.57390E+000	9	...........
	702	9.37333	6.23620E-001	5.99315E-004	0.00000E+000	3.73745E-004	3.59960E-001	6.23809E-001	3.57390E+000	9	...........
	705	9.41333	6.24424E-001	6.00815E-004	0.00000E+000	3.75163E-004	3.59960E-001	6.24643E-001	3.57390E+000	9	...........
	708	9.45333	6.25252E-001	6.00759E-004	0.00000E+000	3.75626E-004	3.59960E-001	6.25468E-001	3.57390E+000	9	...........
	711	9.49333	6.26090E-001	5.99971E-004	0.00000E+000	3.75635E-004	3.59960E-001	6.26326E-001	3.57390E+000	9	...........
	714	9.5333	6.26921E-001	6.00434E-004	0.00000E+000	3.76425E-004	3.59960E-001	6.27109E-001	3.57390E+000	9	...........
	717	9.5733	6.27710E-001	6.00233E-004	0.00000E+000	3.76772E-004	3.59960E-001	6.27941E-001	3.57390E+000	9	...........
	720	9.6133	6.28522E-001	6.00394E-004	0.00000E+000	3.77360E-004	3.59960E-001	6.28743E-001	3.57390E+000	9	...........
	723	9.6533	6.29337E-001	6.00358E-004	0.00000E+000	3.77828E-004	3.59960E-001	6.29547E-001	3.57390E+000	9	...........
	726	9.6933	6.30123E-001	6.00026E-004	0.00000E+000	3.78090E-004	3.59960E-001	6.30362E-001	3.57390E+000	9	...........
	729	9.7333	6.30921E-001	6.00163E-004	0.00000E+000	3.78656E-004	3.59960E-001	6.31129E-001	3.57390E+000	9	...........
	732	9.7733	6.31702E-001	6.00681E-004	0.00000E+000	3.79451E-004	3.59960E-001	6.31936E-001	3.57390E+000	9	...........
	735	9.8133	6.32502E-001	6.00299E-004	0.00000E+000	3.79690E-004	3.59960E-001	6.32747E-001	3.57390E+000	9	...........
	738	9.8533	6.33313E-001	6.00878E-004	0.00000E+000	3.80544E-004	3.59960E-001	6.33514E-001	3.57390E+000	9	...........
	741	9.8933	6.34114E-001	6.01086E-004	0.00000E+000	3.81157E-004	3.59960E-001	6.34299E-001	3.57390E+000	9	...........
	744	9.9333	6.34903E-001	6.00854E-004	0.00000E+000	3.81484E-004	3.59960E-001	6.35096E-001	3.57420E+000	9	...........
	747	9.9733	6.35694E-001	6.00943E-004	0.00000E+000	3.82016E-004	3.59960E-001	6.35919E-001	3.57420E+000	9	...........
	750	10.0133	6.36480E-001	5.99770E-004	0.00000E+000	3.81741E-004	3.59960E-001	6.36682E-001	3.57420E+000	9	...........
	753	10.0533	6.37245E-001	6.00556E-004	0.00000E+000	3.82701E-004	3.59960E-001	6.37496E-001	3.57420E+000	9	...........
	756	10.0933	6.38015E-001	6.00994E-004	0.00000E+000	3.83443E-004	3.59960E-001	6.38267E-001	3.57420E+000	9	...........
	759	10.1333	6.38808E-001	6.01509E-004	0.00000E+000	3.84249E-004	3.59960E-001	6.39076E-001	3.57420E+000	9	...........
	762	10.1733	6.39621E-001	6.00085E-004	0.00000E+000	3.83827E-004	3.59960E-001	6.39871E-001	3.57420E+000	9	...........
	765	10.2133	6.40401E-001	6.00848E-004	0.00000E+000	3.84784E-004	3.59960E-001	6.40632E-001	3.57420E+000	9	...........
	768	10.2533	6.41164E-001	6.00267E-004	0.00000E+000	3.84869E-004	3.59960E-001	6.41391E-001	3.57420E+000	9	...........
	771	10.2933	6.41925E-001	5.99677E-004	0.00000E+000	3.84948E-004	3.59960E-001	6.42161E-001	3.57420E+000	9	...........
	774	10.3333	6.42706E-001	6.00160E-004	0.00000E+000	3.85726E-004	3.59960E-001	6.42944E-001	3.57420E+000	9	...........
	777	10.3733	6.43455E-001	6.01260E-004	0.00000E+000	3.86884E-004	3.59960E-001	6.43714E-001	3.57420E+000	9	...........
	780	10.4133	6.44219E-001	6.01814E-004	0.00000E+000	3.87700E-004	3.59960E-001	6.44474E-001	3.57420E+000	9	...........
	783	10.4533	6.45004E-001	6.02028E-004	0.00000E+000	3.88311E-004	3.59960E-001	6.45233E-001	3.57420E+000	9	...........
	786	10.4933	6.45742E-001	6.00858E-004	0.00000E+000	3.87999E-004	3.59960E-001	6.45981E-001	3.57420E+000	9	...........
	789	10.5333	6.46470E-001	6.00396E-004	0.00000E+000	3.88138E-004	3.59960E-001	6.46726E-001	3.57420E+000	9	...........
	792	10.5733	6.47249E-001	5.99542E-004	0.00000E+000	3.88053E-004	3.59960E-001	6.47464E-001	3.57420E+000	9	...........
	795	10.6133	6.48003E-001	6.01720E-004	0.00000E+000	3.89916E-004	3.59960E-001	6.48234E-001	3.57420E+000	9	...........
	798	10.6533	6.48764E-001	6.01492E-004	0.00000E+000	3.90226E-004	3.59960E-001	6.48980E-001	3.57420E+000	9	...........
	801	10.6933	6.49479E-001	6.00626E-004	0.00000E+000	3.90094E-004	3.59960E-001	6.49694E-001	3.57420E+000	9	...........
	804	10.7333	6.50238E-001	6.00727E-004	0.00000E+000	3.90616E-004	3.59960E-001	6.50443E-001	3.57420E+000	9	...........
	807	10.7733	6.50969E-001	6.02296E-004	0.00000E+000	3.92076E-004	3.59960E-001	6.51197E-001	3.57420E+000	9	...........
	810	10.8133	6.51710E-001	6.00297E-004	0.00000E+000	3.91220E-004	3.59960E-001	6.51951E-001	3.57420E+000	9	...........
	813	10.8533	6.52472E-001	6.00293E-004	0.00000E+000	3.91674E-004	3.59960E-001	6.52687E-001	3.57420E+000	9	...........
	816	10.8933	6.53182E-001	6.00097E-004	0.00000E+000	3.91972E-004	3.59960E-001	6.53437E-001	3.57420E+000	9	...........
	819	10.9333	6.53900E-001	5.99932E-004	0.00000E+000	3.92295E-004	3.59960E-001	6.54137E-001	3.57400E+000	9	...........
	822	10.9733	6.54641E-001	6.00700E-004	0.00000E+000	3.93243E-004	3.59960E-001	6.54862E-001	3.57400E+000	9	...........
	825	11.0133	6.55377E-001	6.01232E-004	0.00000E+000	3.94034E-004	3.59960E-001	6.55581E-001	3.57400E+000	9	...........
	828	11.0533	6.56097E-001	6.00352E-004	0.00000E+000	3.93889E-004	3.59960E-001	6.56298E-001	3.57400E+000	9	...........
	831	11.0933	6.56811E-001	6.00031E-004	0.00000E+000	3.94107E-004	3.59960E-001	6.57027E-001	3.57400E+000	9	...........
	834	11.1333	6.57522E-001	6.01476E-004	0.00000E+000	3.95484E-004	3.59960E-001	6.57727E-001	3.57400E+000	9	...........
	837	11.1733	6.58246E-001	6.00031E-004	0.00000E+000	3.94968E-004	3.59960E-001	6.58472E-001	3.57400E+000	9	...........
	840	11.2133	6.58977E-001	6.00845E-004	0.00000E+000	3.95943E-004	3.59960E-001	6.59189E-001	3.57400E+000	9	...........
	843	11.2533	6.59673E-001	6.00868E-004	0.00000E+000	3.96376E-004	3.59960E-001	6.59884E-001	3.57400E+000	9	...........
	846	11.2933	6.60388E-001	6.01372E-004	0.00000E+000	3.97139E-004	3.59960E-001	6.60602E-001	3.57400E+000	9	...........
	849	11.3333	6.61064E-001	6.01889E-004	0.00000E+000	3.97887E-004	3.59960E-001	6.61309E-001	3.57400E+000	9	...........
	852	11.3733	6.61791E-001	6.00726E-004	0.00000E+000	3.97555E-004	3.59960E-001	6.62004E-001	3.57400E+000	9	...........
	855	11.4133	6.62495E-001	6.00698E-004	0.00000E+000	3.97960E-004	3.59960E-001	6.62734E-001	3.57400E+000	9	...........
	858	11.4533	6.63191E-001	6.00112E-004	0.00000E+000	3.97989E-004	3.59960E-001	6.63453E-001	3.57400E+000	9	...........
	861	11.4933	6.63890E-001	6.01467E-004	0.00000E+000	3.99308E-004	3.59960E-001	6.64147E-001	3.57400E+000	9	...........
	864	11.5333	6.64585E-001	6.00529E-004	0.00000E+000	3.99103E-004	3.59960E-001	6.64829E-001	3.57400E+000	9	...........
	867	11.5733	6.65299E-001	6.01054E-004	0.00000E+000	3.99881E-004	3.59960E-001	6.65522E-001	3.57400E+000	9	...........
	870	11.6133	6.66027E-001	6.01034E-004	0.00000E+000	4.00305E-004	3.59960E-001	6.66244E-001	3.57400E+000	9	...........
	873	11.6533	6.66690E-001	6.00663E-004	0.00000E+000	4.00456E-004	3.59960E-001	6.66903E-001	3.57400E+000	9	...........
	876	11.6933	6.67371E-001	6.00829E-004	0.00000E+000	4.00976E-004	3.59960E-001	6.67618E-001	3.57400E+000	9	...........
	879	11.7333	6.68060E-001	6.00336E-004	0.00000E+000	4.01061E-004	3.59960E-001	6.68302E-001	3.57400E+000	9	...........
	882	11.7733	6.68749E-001	6.00528E-004	0.00000E+000	4.01603E-004	3.59960E-001	6.68998E-001	3.57400E+000	9	...........
	885	11.8133	6.69423E-001	6.01484E-004	0.00000E+000	4.02648E-004	3.59960E-001	6.69660E-001	3.57400E+000	9	...........
	888	11.8533	6.70122E-001	6.00913E-004	0.00000E+000	4.02685E-004	3.59960E-001	6.70328E-001	3.57400E+000	9	...........
	891	11.8933	6.70802E-001	5.99798E-004	0.00000E+000	4.02346E-004	3.59960E-001	6.71032E-001	3.57400E+000	9	...........
	894	11.9333	6.71473E-001	6.00325E-004	0.00000E+000	4.03102E-004	3.59960E-001	6.71689E-001	3.57390E+000	9	...........
	897	11.9733	6.72128E-001	6.00908E-004	0.00000E+000	4.03887E-004	3.59960E-001	6.72353E-001	3.57390E+000	9	...........
	900	12.0133	6.72812E-001	5.99996E-004	0.00000E+000	4.03684E-004	3.59960E-001	6.73035E-001	3.57390E+000	9	...........
	903	12.0533	6.73466E-001	6.00761E-004	0.00000E+000	4.04592E-004	3.59960E-001	6.73679E-001	3.57390E+000	9	...........
	906	12.0933	6.74125E-001	6.01674E-004	0.00000E+000	4.05603E-004	3.59960E-001	6.74372E-001	3.57390E+000	9	...........
	909	12.1333	6.74811E-001	5.99822E-004	0.00000E+000	4.04766E-004	3.59960E-001	6.75013E-001	3.57390E+000	9	...........
	912	12.1733	6.75478E-001	6.01423E-004	0.00000E+000	4.06248E-004	3.59960E-001	6.75713E-001	3.57390E+000	9	...........
	915	12.2133	6.76131E-001	6.01593E-004	0.00000E+000	4.06755E-004	3.59960E-001	6.76352E-001	3.57390E+000	9	...........
	918	12.2533	6.76780E-001	6.01394E-004	0.00000E+000	4.07011E-004	3.59960E-001	6.77013E-001	3.57390E+000	9	...........
	921	12.2933	6.77433E-001	6.00079E-004	0.00000E+000	4.06514E-004	3.59960E-001	6.77668E-001	3.57390E+000	9	...........
	924	12.3333	6.78111E-001	6.00887E-004	0.00000E+000	4.07469E-004	3.59960E-001	6.78330E-001	3.57390E+000	9	...........
	927	12.3733	6.78754E-001	6.00835E-004	0.00000E+000	4.07819E-004	3.59960E-001	6.78984E-001	3.57390E+000	9	...........
	930	12.4133	6.79422E-001	6.00236E-004	0.00000E+000	4.07814E-004	3.59960E-001	6.79655E-001	3.57390E+000	9	...........
	933	12.4533	6.80049E-001	5.99833E-004	0.00000E+000	4.07916E-004	3.59960E-001	6.80283E-001	3.57390E+000	9	...........
	936	12.4933	6.80680E-001	6.00833E-004	0.00000E+000	4.08975E-004	3.59960E-001	6.80955E-001	3.57390E+000	9	...........
	939	12.5333	6.81321E-001	6.00717E-004	0.00000E+000	4.09281E-004	3.59960E-001	6.81550E-001	3.57390E+000	9	...........
	942	12.5733	6.81961E-001	6.00562E-004	0.00000E+000	4.09560E-004	3.59960E-001	6.82195E-001	3.57390E+000	9	...........
	945	12.6133	6.82629E-001	6.00089E-004	0.00000E+000	4.09639E-004	3.59960E-001	6.82830E-001	3.57390E+000	9	...........
	948	12.6533	6.83252E-001	6.01241E-004	0.00000E+000	4.10799E-004	3.59960E-001	6.83479E-001	3.57390E+000	9	...........
	951	12.6933	6.83913E-001	6.01534E-004	0.00000E+000	4.11397E-004	3.59960E-001	6.84143E-001	3.57390E+000	9	...........
	954	12.7333	6.84532E-001	6.01368E-004	0.00000E+000	4.11656E-004	3.59960E-001	6.84748E-001	3.57390E+000	9	...........
	957	12.7733	6.85149E-001	6.00759E-004	0.00000E+000	4.11610E-004	3.59960E-001	6.85414E-001	3.57390E+000	9	...........
	960	12.8133	6.85824E-001	6.00951E-004	0.00000E+000	4.12147E-004	3.59960E-001	6.86057E-001	3.57390E+000	9	...........
	963	12.8533	6.86427E-001	6.01292E-004	0.00000E+000	4.12743E-004	3.59960E-001	6.86663E-001	3.57390E+000	9	...........
	966	12.8933	6.87071E-001	6.00440E-004	0.00000E+000	4.12545E-004	3.59960E-001	6.87285E-001	3.57390E+000	9	...........
	969	12.9333	6.87692E-001	5.99992E-004	0.00000E+000	4.12610E-004	3.59960E-001	6.87912E-001	3.57440E+000	9	...........
	972	12.9733	6.88269E-001	6.01022E-004	0.00000E+000	4.13665E-004	3.59960E-001	6.88547E-001	3.57440E+000	9	...........
	975	13.0133	6.88919E-001	5.99855E-004	0.00000E+000	4.13251E-004	3.59960E-001	6.89154E-001	3.57440E+000	9	...........
	978	13.0533	6.89535E-001	6.00969E-004	0.00000E+000	4.14389E-004	3.59960E-001	6.89827E-001	3.57440E+000	9	...........
	981	13.0933	6.90151E-001	6.00375E-004	0.00000E+000	4.14349E-004	3.59960E-001	6.90410E-001	3.57440E+000	9	...........
	984	13.1333	6.90798E-001	6.00506E-004	0.00000E+000	4.14829E-004	3.59960E-001	6.91037E-001	3.57440E+000	9	...........
	987	13.1733	6.91406E-001	6.01228E-004	0.00000E+000	4.15693E-004	3.59960E-001	6.91658E-001	3.57440E+000	9	...........
	990	13.2133	6.92021E-001	6.01480E-004	0.00000E+000	4.16237E-004	3.59960E-001	6.92265E-001	3.57440E+000	9	...........
	993	13.2533	6.92628E-001	6.01802E-004	0.00000E+000	4.16825E-004	3.59960E-001	6.92875E-001	3.57440E+000	9	...........
	996	13.2933	6.93243E-001	6.01110E-004	0.00000E+000	4.16716E-004	3.59960E-001	6.93488E-001	3.57440E+000	9	...........
	999	13.3333	6.93888E-001	5.99928E-004	0.00000E+000	4.16283E-004	3.59960E-001	6.94089E-001	3.57440E+000	9	...........
	1002	13.3733	6.94482E-001	6.00955E-004	0.00000E+000	4.17353E-004	3.59960E-001	6.94687E-001	3.57440E+000	9	...........
	1005	13.4133	6.95082E-001	6.02658E-004	0.00000E+000	4.18897E-004	3.59960E-001	6.95294E-001	3.57440E+000	9	...........
	1008	13.4533	6.95654E-001	6.00475E-004	0.00000E+000	4.17723E-004	3.59960E-001	6.95925E-001	3.57440E+000	9	...........
	1011	13.4933	6.96277E-001	6.02236E-004	0.00000E+000	4.19323E-004	3.59960E-001	6.96520E-001	3.57440E+000	9	...........
	1014	13.5333	6.96861E-001	5.99877E-004	0.00000E+000	4.18031E-004	3.59960E-001	6.97099E-001	3.57440E+000	9	...........
	1017	13.5733	6.97441E-001	6.00163E-004	0.00000E+000	4.18578E-004	3.59960E-001	6.97695E-001	3.57440E+000	9	...........
	1020	13.6133	6.98047E-001	6.02322E-004	0.00000E+000	4.20449E-004	3.59960E-001	6.98285E-001	3.57440E+000	9	...........
	1023	13.6533	6.98639E-001	6.00785E-004	0.00000E+000	4.19732E-004	3.59960E-001	6.98894E-001	3.57440E+000	9	...........
	1026	13.6933	6.99237E-001	6.00101E-004	0.00000E+000	4.19612E-004	3.59960E-001	6.99499E-001	3.57440E+000	9	...........
	1029	13.7333	6.99827E-001	5.99990E-004	0.00000E+000	4.19889E-004	3.59960E-001	7.00059E-001	3.57440E+000	9	...........
	1032	13.7733	7.00444E-001	6.00876E-004	0.00000E+000	4.20880E-004	3.59960E-001	7.00652E-001	3.57440E+000	9	...........
	1035	13.8133	7.01011E-001	6.03647E-004	0.00000E+000	4.23163E-004	3.59960E-001	7.01223E-001	3.57440E+000	9	...........
	1038	13.8533	7.01605E-001	6.00579E-004	0.00000E+000	4.21369E-004	3.59960E-001	7.01805E-001	3.57440E+000	9	...........
	1041	13.8933	7.02153E-001	6.00932E-004	0.00000E+000	4.21946E-004	3.59960E-001	7.02385E-001	3.57440E+000	9	...........
	1044	13.9333	7.02745E-001	6.01128E-004	0.00000E+000	4.22440E-004	3.59960E-001	7.02992E-001	3.57460E+000	9	...........
	1047	13.9733	7.03344E-001	6.01380E-004	0.00000E+000	4.22977E-004	3.59960E-001	7.03577E-001	3.57460E+000	9	...........
	1050	14.0133	7.03926E-001	6.00134E-004	0.00000E+000	4.22450E-004	3.59960E-001	7.04165E-001	3.57460E+000	9	...........
	1053	14.0533	7.04511E-001	6.00989E-004	0.00000E+000	4.23403E-004	3.59960E-001	7.04741E-001	3.57460E+000	9	...........
	1056	14.0933	7.05086E-001	6.01164E-004	0.00000E+000	4.23872E-004	3.59960E-001	7.05299E-001	3.57460E+000	9	...........
	1059	14.1333	7.05661E-001	6.02254E-004	0.00000E+000	4.24988E-004	3.59960E-001	7.05895E-001	3.57460E+000	9	...........
	1062	14.1733	7.06222E-001	5.99117E-004	0.00000E+000	4.23110E-004	3.59960E-001	7.06460E-001	3.57460E+000	9	...........
	1065	14.2133	7.06808E-001	5.99004E-004	0.00000E+000	4.23381E-004	3.59960E-001	7.07036E-001	3.57460E+000	9	...........
	1068	14.2533	7.07350E-001	6.00845E-004	0.00000E+000	4.25007E-004	3.59960E-001	7.07621E-001	3.57460E+000	9	...........
	1071	14.2933	7.07927E-001	6.00933E-004	0.00000E+000	4.25417E-004	3.59960E-001	7.08193E-001	3.57460E+000	9	...........
	1074	14.3333	7.08460E-001	6.00569E-004	0.00000E+000	4.25479E-004	3.59960E-001	7.08710E-001	3.57460E+000	9	...........
	1077	14.3733	7.09043E-001	6.01315E-004	0.00000E+000	4.26358E-004	3.59960E-001	7.09315E-001	3.57460E+000	9	...........
	1080	14.4133	7.09635E-001	6.00637E-004	0.00000E+000	4.26234E-004	3.59960E-001	7.09869E-001	3.57460E+000	9	...........
	1083	14.4533	7.10211E-001	6.01761E-004	0.00000E+000	4.27377E-004	3.59960E-001	7.10414E-001	3.57460E+000	9	...........
	1086	14.4933	7.10742E-001	6.00197E-004	0.00000E+000	4.26585E-004	3.59960E-001	7.10981E-001	3.57460E+000	9	...........
	1089	14.5333	7.11334E-001	6.02190E-004	0.00000E+000	4.28358E-004	3.59960E-001	7.11539E-001	3.57460E+000	9	...........
	1092	14.5733	7.11890E-001	6.01645E-004	0.00000E+000	4.28305E-004	3.59960E-001	7.12106E-001	3.57460E+000	9	...........
	1095	14.6133	7.12406E-001	6.00261E-004	0.00000E+000	4.27630E-004	3.59960E-001	7.12654E-001	3.57460E+000	9	...........
	1098	14.6533	7.12948E-001	6.00375E-004	0.00000E+000	4.28036E-004	3.59960E-001	7.13205E-001	3.57460E+000	9	...........
	1101	14.6933	7.13522E-001	6.02043E-004	0.00000E+000	4.29571E-004	3.59960E-001	7.13776E-001	3.57460E+000	9	...........
	1104	14.7333	7.14074E-001	6.01296E-004	0.00000E+000	4.29370E-004	3.59960E-001	7.14329E-001	3.57460E+000	9	...........
	1107	14.7733	7.14627E-001	5.99732E-004	0.00000E+000	4.28585E-004	3.59960E-001	7.14863E-001	3.57460E+000	9	...........
	1110	14.8133	7.15164E-001	5.99752E-004	0.00000E+000	4.28921E-004	3.59960E-001	7.15438E-001	3.57460E+000	9	...........
	1113	14.8533	7.15731E-001	6.00951E-004	0.00000E+000	4.30120E-004	3.59960E-001	7.16018E-001	3.57460E+000	9	...........
	1116	14.8933	7.16285E-001	6.01307E-004	0.00000E+000	4.30708E-004	3.59960E-001	7.16571E-001	3.57460E+000	9	...........
	1119	14.9333	7.16841E-001	6.00839E-004	0.00000E+000	4.30706E-004	3.59960E-001	7.17118E-001	3.57390E+000	9	...........
	1122	14.9733	7.17442E-001	6.00191E-004	0.00000E+000	4.30603E-004	3.59960E-001	7.17673E-001	3.57390E+000	9	...........
	1125	15.0133	7.17980E-001	6.01572E-004	0.00000E+000	4.31916E-004	3.59960E-001	7.18205E-001	3.57390E+000	9	...........
	1128	15.0533	7.18516E-001	6.00871E-004	0.00000E+000	4.31735E-004	3.59960E-001	7.18716E-001	3.57390E+000	9	...........
	1131	15.0933	7.19025E-001	6.01115E-004	0.00000E+000	4.32217E-004	3.59960E-001	7.19268E-001	3.57390E+000	9	...........
	1134	15.1333	7.19584E-001	6.00485E-004	0.00000E+000	4.32100E-004	3.59960E-001	7.19800E-001	3.57390E+000	9	...........
	1137	15.1733	7.20124E-001	6.00780E-004	0.00000E+000	4.32636E-004	3.59960E-001	7.20350E-001	3.57390E+000	9	...........
	1140	15.2133	7.20662E-001	6.00551E-004	0.00000E+000	4.32794E-004	3.59960E-001	7.20890E-001	3.57390E+000	9	...........
	1143	15.2533	7.21200E-001	5.99885E-004	0.00000E+000	4.32637E-004	3.59960E-001	7.21403E-001	3.57390E+000	9	...........
	1146	15.2933	7.21706E-001	6.00046E-004	0.00000E+000	4.33057E-004	3.59960E-001	7.21940E-001	3.57390E+000	9	...........
	1149	15.3333	7.22236E-001	5.99935E-004	0.00000E+000	4.33295E-004	3.59960E-001	7.22481E-001	3.57390E+000	9	...........
	1152	15.3733	7.22778E-001	5.99759E-004	0.00000E+000	4.33493E-004	3.59960E-001	7.23013E-001	3.57390E+000	9	...........
	1155	15.4133	7.23320E-001	6.02185E-004	0.00000E+000	4.35572E-004	3.59960E-001	7.23548E-001	3.57390E+000	9	...........
	1158	15.4533	7.23862E-001	5.99241E-004	0.00000E+000	4.33768E-004	3.59960E-001	7.24069E-001	3.57390E+000	9	...........
	1161	15.4933	7.24397E-001	6.00558E-004	0.00000E+000	4.35043E-004	3.59960E-001	7.24600E-001	3.57390E+000	9	...........
	1164	15.5333	7.24919E-001	6.00978E-004	0.00000E+000	4.35660E-004	3.59960E-001	7.25134E-001	3.57390E+000	9	...........
	1167	15.5733	7.25425E-001	5.99837E-004	0.00000E+000	4.35137E-004	3.59960E-001	7.25649E-001	3.57390E+000	9	...........
	1170	15.6133	7.25960E-001	6.00562E-004	0.00000E+000	4.35984E-004	3.59960E-001	7.26159E-001	3.57390E+000	9	...........
	1173	15.6533	7.26487E-001	5.99999E-004	0.00000E+000	4.35891E-004	3.59960E-001	7.26690E-001	3.57390E+000	9	...........
	1176	15.6933	7.26998E-001	6.00915E-004	0.00000E+000	4.36864E-004	3.59960E-001	7.27209E-001	3.57390E+000	9	...........
	1179	15.7333	7.27527E-001	6.01735E-004	0.00000E+000	4.37778E-004	3.59960E-001	7.27700E-001	3.57390E+000	9	...........
	1182	15.7733	7.28015E-001	6.00237E-004	0.00000E+000	4.36982E-004	3.59960E-001	7.28221E-001	3.57390E+000	9	...........
	1185	15.8133	7.28557E-001	6.00783E-004	0.00000E+000	4.37705E-004	3.59960E-001	7.28793E-001	3.57390E+000	9	...........
	1188	15.8533	7.29064E-001	6.02871E-004	0.00000E+000	4.39532E-004	3.59960E-001	7.29301E-001	3.57390E+000	9	...........
	1191	15.8933	7.29583E-001	6.00233E-004	0.00000E+000	4.37920E-004	3.59960E-001	7.29821E-001	3.57390E+000	9	...........
	1194	15.9333	7.30097E-001	6.01131E-004	0.00000E+000	4.38884E-004	3.59960E-001	7.30340E-001	3.57390E+000	9	...........
	1197	15.9733	7.30577E-001	6.00970E-004	0.00000E+000	4.39055E-004	3.59960E-001	7.30836E-001	3.57390E+000	9	...........
	1200	16.0133	7.31093E-001	5.99939E-004	0.00000E+000	4.38612E-004	3.59960E-001	7.31345E-001	3.57390E+000	9	...........
	1203	16.0533	7.31614E-001	6.00879E-004	0.00000E+000	4.39611E-004	3.59960E-001	7.31854E-001	3.57390E+000	9	...........
	1206	16.0933	7.32122E-001	5.99802E-004	0.00000E+000	4.39128E-004	3.59960E-001	7.32359E-001	3.57390E+000	9	...........
	1209	16.1333	7.32654E-001	6.00649E-004	0.00000E+000	4.40068E-004	3.59960E-001	7.32866E-001	3.57390E+000	9	...........
	1212	16.1733	7.33137E-001	6.01139E-004	0.00000E+000	4.40717E-004	3.59960E-001	7.33379E-001	3.57390E+000	9	...........
	1215	16.2133	7.33634E-001	6.00779E-004	0.00000E+000	4.40752E-004	3.59960E-001	7.33889E-001	3.57390E+000	9	...........
	1218	16.2533	7.34156E-001	6.00680E-004	0.00000E+000	4.40993E-004	3.59960E-001	7.34379E-001	3.57390E+000	9	...........
	1221	16.2933	7.34665E-001	6.00854E-004	0.00000E+000	4.41426E-004	3.59960E-001	7.34901E-001	3.57390E+000	9	...........
	1224	16.3333	7.35189E-001	6.00212E-004	0.00000E+000	4.41269E-004	3.59960E-001	7.35398E-001	3.57390E+000	9	...........
	1227	16.3733	7.35674E-001	6.00698E-004	0.00000E+000	4.41918E-004	3.59960E-001	7.35890E-001	3.57390E+000	9	...........
	1230	16.4133	7.36174E-001	6.00260E-004	0.00000E+000	4.41896E-004	3.59960E-001	7.36401E-001	3.57390E+000	9	...........
	1233	16.4533	7.36668E-001	6.01653E-004	0.00000E+000	4.43219E-004	3.59960E-001	7.36898E-001	3.57390E+000	9	...........
	1236	16.4933	7.37152E-001	6.00897E-004	0.00000E+000	4.42952E-004	3.59960E-001	7.37349E-001	3.57390E+000	9	...........
	1239	16.5333	7.37667E-001	6.00995E-004	0.00000E+000	4.43334E-004	3.59960E-001	7.37918E-001	3.57390E+000	9	...........
	1242	16.5733	7.38138E-001	6.00120E-004	0.00000E+000	4.42971E-004	3.59960E-001	7.38391E-001	3.57390E+000	9	...........
	1245	16.6133	7.38650E-001	6.00343E-004	0.00000E+000	4.43443E-004	3.59960E-001	7.38903E-001	3.57390E+000	9	...........
	1248	16.6533	7.39121E-001	6.00717E-004	0.00000E+000	4.44002E-004	3.59960E-001	7.39378E-001	3.57390E+000	9	...........
	1251	16.6933	7.39631E-001	6.00338E-004	0.00000E+000	4.44029E-004	3.59960E-001	7.39885E-001	3.57390E+000	9	...........
	1254	16.7333	7.40113E-001	5.99687E-004	0.00000E+000	4.43836E-004	3.59960E-001	7.40374E-001	3.57390E+000	9	...........
	1257	16.7733	7.40603E-001	6.00009E-004	0.00000E+000	4.44369E-004	3.59960E-001	7.40840E-001	3.57390E+000	9	...........
	1260	16.8133	7.41114E-001	6.01458E-004	0.00000E+000	4.45750E-004	3.59960E-001	7.41355E-001	3.57390E+000	9	...........
	1263	16.8533	7.41623E-001	6.01647E-004	0.00000E+000	4.46196E-004	3.59960E-001	7.41861E-001	3.57390E+000	9	...........
	1266	16.8933	7.42127E-001	6.01458E-004	0.00000E+000	4.46359E-004	3.59960E-001	7.42336E-001	3.57390E+000	9	...........
	1269	16.9333	7.42580E-001	5.99450E-004	0.00000E+000	4.45139E-004	3.59960E-001	7.42845E-001	3.57430E+000	9	...........