File: Data/CV_Steel_Disk_No_Material_2/CV_#1.DTA
EXPLAIN
TAG	CV
TITLE	LABEL	Cyclic Voltammetry	Test Identifier
DATE	LABEL	12-7-2017	Date
TIME	LABEL	17:11:04	Time
NOTES	NOTES	1	Notes...

PSTAT	PSTAT	IFC5000-01520	Potentiostat
VINIT	POTEN	0.00000E+000	F	Initial E (V)
VLIMIT1	POTEN	-8.00000E-001	F	Scan Limit 1 (V)
VLIMIT2	POTEN	8.00000E-001	F	Scan Limit 2 (V)
VFINAL	POTEN	0.00000E+000	F	Final E (V)
SCANRATE	QUANT	2.50000E+001	A Real Number
STEPSIZE	QUANT	1.00000E+001	Step Size (mV)
CYCLES	IQUANT	3	Cycles (#)
IMODE	SELECTOR	0	I/E Range Mode
IRANGE	QUANT	2.50000E+002	Max Current (mA)
AREA	QUANT	3.84800E-001	A Real Number
EQDELAY	QUANT	1.00000E+000	Equil. Time (s)
IRCOMP	SELECTOR	0	IRComp
PFCOR	QUANT	2.50000E+002	PF Corr. (ohm)
SAMPLINGMODE	SELECTOR	0	Sampling Mode
EOC	QUANT	0	Open Circuit (V)
SEQUENCER	TOGGLE	TRUE	Run as Sequence
PSTATMODEL	IQUANT	53	Pstat Model
PSTATSECTION	LABEL	IFC5000-01520	Pstat Section
PSTATSERIALNO	LABEL	01520	Pstat Serial Number
CTRLMODE	IQUANT	1	Control Mode
ELECTROMETER	IQUANT	0	RE=0 or CS=1
IESTAB	IQUANT	2	I/E Stability
CASPEED	IQUANT	4	Control Amp Speed
CONVENTION	IQUANT	1	Current Convention
ICHRANGE	IQUANT	2	Ich Range
ICHRANGEMODE	TOGGLE	F	Ich Auto Range
ICHOFFSETENABLE	TOGGLE	F	Ich Offset Enable
ICHOFFSET	QUANT	0	Ich Offset (V)
ICHFILTER	IQUANT	3	Ich Filter
VCHRANGE	IQUANT	2	Vch Range
VCHRANGEMODE	TOGGLE	F	Vch Auto Range
VCHOFFSETENABLE	TOGGLE	F	Vch Offset Enable
VCHOFFSET	QUANT	0	Vch Offset (V)
VCHFILTER	IQUANT	3	Vch Filter
IERANGELOWERLIMIT	IQUANT	7	I/E Range Lower Limit
IERANGEMODE	TOGGLE	T	I/E AutoRange
IERANGE	IQUANT	11	I/E Range
ACHSELECT	IQUANT	1	Ach Select
ACHRANGE	IQUANT	2	Ach Range
ACHOFFSETENABLE	TOGGLE	F	Ach Offset Enable
ACHOFFSET	QUANT	0	Ach Offset (V)
ACHFILTER	IQUANT	1	Ach Filter
CABLEID	IQUANT	14	Cable ID
DCCALDATE	LABEL	5-7-2017	DC Calibration Date
ACCALDATE	LABEL	12/3/2015	AC Calibration Date
FRAMEWORKVERSION	QUANT	7.01	Framework Version
INSTRUMENTVERSION	LABEL	4.00	Instrument Version
CURVE1	TABLE
	Pt	T	Vf	Im	Vu	Sig	Ach	IERange	Over
	#	s	V vs. Ref.	A	V	V	V	#	bits
	0	0.4	-3.65120E-004	1.13247E-005	0.00000E+000	0.00000E+000	-7.33871E-004	11	...........
	1	0.8	-1.01651E-002	-2.20360E-006	0.00000E+000	-9.99874E-003	-1.03374E-002	10	...........
	2	1.2	-2.03651E-002	-1.38702E-006	0.00000E+000	-1.99975E-002	-2.03411E-002	9	...........
	3	1.6	-3.03651E-002	-1.87515E-006	0.00000E+000	-2.99962E-002	-3.05449E-002	8	...........
	4	2	-4.03651E-002	-1.85778E-006	0.00000E+000	-3.99949E-002	-4.05486E-002	7	...........
	5	2.4	-5.03651E-002	-1.97970E-006	0.00000E+000	-4.99937E-002	-5.03522E-002	7	...........
	6	2.8	-6.05651E-002	-2.24526E-006	0.00000E+000	-5.99924E-002	-6.05560E-002	7	...........
	7	3.2	-7.03651E-002	-2.40393E-006	0.00000E+000	-6.99912E-002	-7.03596E-002	7	...........
	8	3.6	-8.03651E-002	-2.38389E-006	0.00000E+000	-7.99899E-002	-8.05634E-002	7	...........
	9	4	-9.01651E-002	-2.62273E-006	0.00000E+000	-8.99886E-002	-9.05671E-002	7	...........
	10	4.4	-1.00165E-001	-2.62106E-006	0.00000E+000	-9.99874E-002	-1.00571E-001	7	...........
	11	4.8	-1.10165E-001	-2.87659E-006	0.00000E+000	-1.09986E-001	-1.10374E-001	7	...........
	12	5.2	-1.20365E-001	-3.01689E-006	0.00000E+000	-1.19985E-001	-1.20378E-001	7	...........
	13	5.6	-1.30165E-001	-3.16387E-006	0.00000E+000	-1.29984E-001	-1.30382E-001	7	...........
	14	6	-1.40165E-001	-3.40938E-006	0.00000E+000	-1.39982E-001	-1.40385E-001	7	...........
	15	6.4	-1.50165E-001	-3.39268E-006	0.00000E+000	-1.49981E-001	-1.50389E-001	7	...........
	16	6.8	-1.60165E-001	-3.63319E-006	0.00000E+000	-1.59980E-001	-1.60393E-001	7	...........
	17	7.2	-1.70165E-001	-3.63653E-006	0.00000E+000	-1.69979E-001	-1.70397E-001	7	...........
	18	7.6	-1.80165E-001	-4.10752E-006	0.00000E+000	-1.79977E-001	-1.80600E-001	7	...........
	19	8	-1.90165E-001	-4.29458E-006	0.00000E+000	-1.89976E-001	-1.90204E-001	7	...........
	20	8.4	-2.00165E-001	-4.52507E-006	0.00000E+000	-2.00025E-001	-2.00408E-001	7	...........
	21	8.8	-2.10165E-001	-4.82069E-006	0.00000E+000	-2.10023E-001	-2.10411E-001	7	...........
	22	9.2	-2.20165E-001	-5.18646E-006	0.00000E+000	-2.20022E-001	-2.20415E-001	7	...........
	23	9.6	-2.30365E-001	-5.24325E-006	0.00000E+000	-2.30021E-001	-2.30419E-001	7	...........
	24	10	-2.40165E-001	-5.51883E-006	0.00000E+000	-2.40020E-001	-2.40222E-001	7	...........
	25	10.4	-2.50165E-001	-5.85787E-006	0.00000E+000	-2.50018E-001	-2.50226E-001	7	...........
	26	10.8	-2.60365E-001	-5.97479E-006	0.00000E+000	-2.60017E-001	-2.60430E-001	7	...........
	27	11.2	-2.70165E-001	-6.39400E-006	0.00000E+000	-2.70016E-001	-2.70233E-001	7	...........
	28	11.6	-2.80165E-001	-6.70633E-006	0.00000E+000	-2.80015E-001	-2.80237E-001	7	...........
	29	12	-2.90165E-001	-6.86165E-006	0.00000E+000	-2.90013E-001	-2.90441E-001	7	...........
	30	12.4	-3.00165E-001	-6.84161E-006	0.00000E+000	-3.00012E-001	-3.00445E-001	7	...........
	31	12.8	-3.10165E-001	-7.39110E-006	0.00000E+000	-3.10011E-001	-3.10248E-001	7	...........
	32	13.2	-3.20165E-001	-7.64330E-006	0.00000E+000	-3.20010E-001	-3.20252E-001	7	...........
	33	13.6	-3.30165E-001	-7.79028E-006	0.00000E+000	-3.30008E-001	-3.30256E-001	7	...........
	34	14	-3.40365E-001	-8.10260E-006	0.00000E+000	-3.40007E-001	-3.40259E-001	7	...........
	35	14.4	-3.50165E-001	-8.37818E-006	0.00000E+000	-3.50006E-001	-3.50263E-001	7	...........
	36	14.8	-3.60165E-001	-8.61201E-006	0.00000E+000	-3.60005E-001	-3.60467E-001	7	...........
	37	15.2	-3.70165E-001	-9.08467E-006	0.00000E+000	-3.70003E-001	-3.70070E-001	7	...........
	38	15.6	-3.80165E-001	-9.30513E-006	0.00000E+000	-3.80002E-001	-3.80274E-001	7	...........
	39	16	-3.89965E-001	-9.54564E-006	0.00000E+000	-3.90001E-001	-3.90278E-001	7	...........
	40	16.4	-4.00165E-001	-9.71433E-006	0.00000E+000	-3.99999E-001	-4.00282E-001	7	...........
	41	16.8	-4.09765E-001	-1.02454E-005	0.00000E+000	-4.09998E-001	-4.10285E-001	7	...........
	42	17.2	-4.19965E-001	-1.02505E-005	0.00000E+000	-4.19997E-001	-4.20089E-001	7	...........
	43	17.6	-4.30165E-001	-1.05945E-005	0.00000E+000	-4.29996E-001	-4.30093E-001	7	...........
	44	18	-4.40165E-001	-1.11975E-005	0.00000E+000	-4.39994E-001	-4.40096E-001	7	...........
	45	18.4	-4.49965E-001	-1.13411E-005	0.00000E+000	-4.49993E-001	-4.50100E-001	7	...........
	46	18.8	-4.59965E-001	-1.16835E-005	0.00000E+000	-4.59992E-001	-4.60104E-001	7	...........
	47	19.2	-4.69965E-001	-1.18689E-005	0.00000E+000	-4.69991E-001	-4.70107E-001	7	...........
	48	19.6	-4.79765E-001	-1.25336E-005	0.00000E+000	-4.79989E-001	-4.79911E-001	7	...........
	49	20	-4.89765E-001	-1.27491E-005	0.00000E+000	-4.89988E-001	-4.90315E-001	7	...........
	50	20.4	-4.99965E-001	-1.32635E-005	0.00000E+000	-4.99987E-001	-5.00118E-001	7	...........
	51	20.8	-5.09965E-001	-1.37729E-005	0.00000E+000	-5.09986E-001	-5.10122E-001	7	...........
	52	21.2	-5.19965E-001	-1.41420E-005	0.00000E+000	-5.19984E-001	-5.20126E-001	7	...........
	53	21.6	-5.29765E-001	-1.47700E-005	0.00000E+000	-5.29983E-001	-5.30130E-001	7	...........
	54	22	-5.39965E-001	-1.50773E-005	0.00000E+000	-5.39982E-001	-5.40133E-001	7	...........
	55	22.4	-5.49965E-001	-1.56619E-005	0.00000E+000	-5.49981E-001	-5.49937E-001	7	...........
	56	22.8	-5.59965E-001	-1.61028E-005	0.00000E+000	-5.59979E-001	-5.59941E-001	7	...........
	57	23.2	-5.69965E-001	-1.66473E-005	0.00000E+000	-5.69978E-001	-5.69944E-001	7	...........
	58	23.6	-5.79765E-001	-1.73872E-005	0.00000E+000	-5.79977E-001	-5.80148E-001	7	...........
	59	24	-5.90165E-001	-1.78398E-005	0.00000E+000	-5.89975E-001	-5.89952E-001	7	...........
	60	24.4	-5.99965E-001	-1.83425E-005	0.00000E+000	-6.00024E-001	-5.99955E-001	7	...........
	61	24.8	-6.09965E-001	-1.89388E-005	0.00000E+000	-6.10023E-001	-6.09959E-001	7	...........
	62	25.2	-6.19965E-001	-1.98490E-005	0.00000E+000	-6.20022E-001	-6.20163E-001	7	...........
	63	25.6	-6.29965E-001	-2.04753E-005	0.00000E+000	-6.30020E-001	-6.30167E-001	7	...........
	64	26	-6.39765E-001	-2.12586E-005	0.00000E+000	-6.40019E-001	-6.39970E-001	7	...........
	65	26.4	-6.49965E-001	-2.20035E-005	0.00000E+000	-6.50018E-001	-6.49974E-001	7	...........
	66	26.8	-6.59965E-001	-2.26633E-005	0.00000E+000	-6.60017E-001	-6.60178E-001	7	...........
	67	27.2	-6.69965E-001	-2.38775E-005	0.00000E+000	-6.70015E-001	-6.69981E-001	7	...........
	68	27.6	-6.79765E-001	-2.47961E-005	0.00000E+000	-6.80014E-001	-6.79985E-001	7	...........
	69	28	-6.89965E-001	-2.59435E-005	0.00000E+000	-6.90013E-001	-6.89989E-001	7	...........
	70	28.4	-6.99965E-001	-2.69590E-005	0.00000E+000	-7.00012E-001	-6.99792E-001	7	...........
	71	28.8	-7.09965E-001	-2.81415E-005	0.00000E+000	-7.10010E-001	-7.10196E-001	7	...........
	72	29.2	-7.19965E-001	-2.92371E-005	0.00000E+000	-7.20009E-001	-7.20000E-001	7	...........
	73	29.6	-7.29965E-001	-3.06234E-005	0.00000E+000	-7.30008E-001	-7.30003E-001	7	...........
	74	30	-7.39965E-001	-3.17574E-005	0.00000E+000	-7.40007E-001	-7.39807E-001	7	...........
	75	30.4	-7.49765E-001	-3.30218E-005	0.00000E+000	-7.50005E-001	-7.50011E-001	7	...........
	76	30.8	-7.59765E-001	-3.43663E-005	0.00000E+000	-7.60004E-001	-7.59814E-001	7	...........
	77	31.2	-7.69765E-001	-3.59229E-005	0.00000E+000	-7.70003E-001	-7.70018E-001	7	...........
	78	31.6	-7.79965E-001	-3.69517E-005	0.00000E+000	-7.80001E-001	-7.79822E-001	7	...........
	79	32	-7.89765E-001	-3.82728E-005	0.00000E+000	-7.90000E-001	-7.89825E-001	7	...........
	80	32.4	-7.99765E-001	-3.97660E-005	0.00000E+000	-7.99999E-001	-8.00029E-001	7	...........
	81	32.8	-7.89765E-001	-3.39470E-005	0.00000E+000	-7.90000E-001	-7.89825E-001	7	...........
	82	33.2	-7.79765E-001	-2.98718E-005	0.00000E+000	-7.80001E-001	-7.79822E-001	7	...........
	83	33.6	-7.69765E-001	-2.63160E-005	0.00000E+000	-7.70003E-001	-7.69818E-001	7	...........
	84	34	-7.59765E-001	-2.36370E-005	0.00000E+000	-7.60004E-001	-7.59814E-001	7	...........
	85	34.4	-7.49765E-001	-2.10749E-005	0.00000E+000	-7.50005E-001	-7.49811E-001	7	...........
	86	34.8	-7.39765E-001	-1.90857E-005	0.00000E+000	-7.40007E-001	-7.40007E-001	7	...........
	87	35.2	-7.29765E-001	-1.74206E-005	0.00000E+000	-7.30008E-001	-7.30003E-001	7	...........
	88	35.6	-7.19765E-001	-1.55616E-005	0.00000E+000	-7.20009E-001	-7.20000E-001	7	...........
	89	36	-7.09965E-001	-1.43257E-005	0.00000E+000	-7.10010E-001	-7.09996E-001	7	...........
	90	36.4	-6.99965E-001	-1.29712E-005	0.00000E+000	-7.00012E-001	-6.99992E-001	7	...........
	91	36.8	-6.89765E-001	-1.19440E-005	0.00000E+000	-6.90013E-001	-6.90189E-001	7	...........
	92	37.2	-6.79965E-001	-1.06496E-005	0.00000E+000	-6.80014E-001	-6.79985E-001	7	...........
	93	37.6	-6.69765E-001	-9.77279E-006	0.00000E+000	-6.70015E-001	-6.69981E-001	7	...........
	94	38	-6.59965E-001	-8.82746E-006	0.00000E+000	-6.60017E-001	-6.59978E-001	7	...........
	95	38.4	-6.49765E-001	-8.07254E-006	0.00000E+000	-6.50018E-001	-6.49974E-001	7	...........
	96	38.8	-6.39765E-001	-7.43620E-006	0.00000E+000	-6.40019E-001	-6.40170E-001	7	...........
	97	39.2	-6.29965E-001	-6.75476E-006	0.00000E+000	-6.30020E-001	-6.29966E-001	7	...........
	98	39.6	-6.19965E-001	-5.98648E-006	0.00000E+000	-6.20022E-001	-6.19963E-001	7	...........
	99	40	-6.09965E-001	-5.60902E-006	0.00000E+000	-6.10023E-001	-6.09959E-001	7	...........
	100	40.4	-5.99965E-001	-5.14637E-006	0.00000E+000	-6.00024E-001	-5.99955E-001	7	...........
	101	40.8	-5.89965E-001	-4.57684E-006	0.00000E+000	-5.89975E-001	-5.89952E-001	7	...........
	102	41.2	-5.79965E-001	-4.13925E-006	0.00000E+000	-5.79977E-001	-5.80148E-001	7	...........
	103	41.6	-5.69965E-001	-3.84864E-006	0.00000E+000	-5.69978E-001	-5.69944E-001	7	...........
	104	42	-5.59965E-001	-3.18391E-006	0.00000E+000	-5.59979E-001	-5.60141E-001	7	...........
	105	42.4	-5.49965E-001	-2.78640E-006	0.00000E+000	-5.49981E-001	-5.49937E-001	7	...........
	106	42.8	-5.39965E-001	-2.52251E-006	0.00000E+000	-5.39982E-001	-5.39933E-001	7	...........
	107	43.2	-5.29965E-001	-2.13002E-006	0.00000E+000	-5.29983E-001	-5.30130E-001	7	...........
	108	43.6	-5.19765E-001	-2.07657E-006	0.00000E+000	-5.19984E-001	-5.20126E-001	7	...........
	109	44	-5.09965E-001	-1.45694E-006	0.00000E+000	-5.09986E-001	-5.09922E-001	7	...........
	110	44.4	-5.00165E-001	-1.34336E-006	0.00000E+000	-4.99987E-001	-5.00118E-001	7	...........
	111	44.8	-4.89965E-001	-9.67572E-007	0.00000E+000	-4.89988E-001	-4.90115E-001	7	...........
	112	45.2	-4.79965E-001	-7.53789E-007	0.00000E+000	-4.79989E-001	-4.80111E-001	7	...........
	113	45.6	-4.69965E-001	-7.37087E-007	0.00000E+000	-4.69991E-001	-4.69907E-001	7	...........
	114	46	-4.59965E-001	-3.29562E-007	0.00000E+000	-4.59992E-001	-4.60104E-001	7	...........
	115	46.4	-4.49965E-001	-1.69224E-007	0.00000E+000	-4.49993E-001	-4.50100E-001	7	...........
	116	46.8	-4.40165E-001	6.12617E-008	0.00000E+000	-4.39994E-001	-4.40096E-001	7	...........
	117	47.2	-4.30165E-001	1.19718E-007	0.00000E+000	-4.29996E-001	-4.30093E-001	7	...........
	118	47.6	-4.20165E-001	3.86948E-007	0.00000E+000	-4.19997E-001	-4.20089E-001	7	...........
	119	48	-4.09965E-001	3.13460E-007	0.00000E+000	-4.09998E-001	-4.10085E-001	7	...........
	120	48.4	-4.00165E-001	6.17433E-007	0.00000E+000	-3.99999E-001	-4.00081E-001	7	...........
	121	48.8	-3.89765E-001	7.20985E-007	0.00000E+000	-3.90001E-001	-3.90078E-001	7	...........
	122	49.2	-3.80165E-001	8.07834E-007	0.00000E+000	-3.80002E-001	-3.80274E-001	7	...........
	123	49.6	-3.69965E-001	8.94684E-007	0.00000E+000	-3.70003E-001	-3.70070E-001	7	...........
	124	50	-3.59965E-001	9.88214E-007	0.00000E+000	-3.60005E-001	-3.60267E-001	7	...........
	125	50.4	-3.49965E-001	1.20534E-006	0.00000E+000	-3.50006E-001	-3.50263E-001	7	...........
	126	50.8	-3.40165E-001	1.24375E-006	0.00000E+000	-3.40007E-001	-3.40459E-001	7	...........
	127	51.2	-3.30165E-001	1.24709E-006	0.00000E+000	-3.30008E-001	-3.30256E-001	7	...........
	128	51.6	-3.20165E-001	1.28050E-006	0.00000E+000	-3.20010E-001	-3.20252E-001	7	...........
	129	52	-3.10165E-001	1.43415E-006	0.00000E+000	-3.10011E-001	-3.10448E-001	7	...........
	130	52.4	-2.99965E-001	1.49094E-006	0.00000E+000	-3.00012E-001	-3.00245E-001	7	...........
	131	52.8	-2.90165E-001	1.72644E-006	0.00000E+000	-2.90013E-001	-2.90241E-001	7	...........
	132	53.2	-2.80165E-001	1.73479E-006	0.00000E+000	-2.80015E-001	-2.80037E-001	7	...........
	133	53.6	-2.70165E-001	1.75483E-006	0.00000E+000	-2.70016E-001	-2.70434E-001	7	...........
	134	54	-2.60165E-001	1.87007E-006	0.00000E+000	-2.60017E-001	-2.60230E-001	7	...........
	135	54.4	-2.50165E-001	1.77153E-006	0.00000E+000	-2.50018E-001	-2.50026E-001	7	...........
	136	54.8	-2.40365E-001	1.77988E-006	0.00000E+000	-2.40020E-001	-2.40422E-001	7	...........
	137	55.2	-2.30165E-001	1.90348E-006	0.00000E+000	-2.30021E-001	-2.30219E-001	7	...........
	138	55.6	-2.20165E-001	2.02540E-006	0.00000E+000	-2.20022E-001	-2.20215E-001	7	...........
	139	56	-2.10165E-001	2.00536E-006	0.00000E+000	-2.10023E-001	-2.10411E-001	7	...........
	140	56.4	-2.00365E-001	2.20912E-006	0.00000E+000	-2.00025E-001	-2.00408E-001	7	...........
	141	56.8	-1.90165E-001	2.10223E-006	0.00000E+000	-1.89976E-001	-1.90404E-001	7	...........
	142	57.2	-1.80165E-001	2.14398E-006	0.00000E+000	-1.79977E-001	-1.80400E-001	7	...........
	143	57.6	-1.69965E-001	2.26925E-006	0.00000E+000	-1.69979E-001	-1.70197E-001	7	...........
	144	58	-1.60165E-001	2.16068E-006	0.00000E+000	-1.59980E-001	-1.60193E-001	7	...........
	145	58.4	-1.50165E-001	2.21413E-006	0.00000E+000	-1.49981E-001	-1.50389E-001	7	...........
	146	58.8	-1.40165E-001	2.27927E-006	0.00000E+000	-1.39982E-001	-1.40185E-001	7	...........
	147	59.2	-1.30165E-001	2.43626E-006	0.00000E+000	-1.29984E-001	-1.30382E-001	7	...........
	148	59.6	-1.20165E-001	2.44128E-006	0.00000E+000	-1.19985E-001	-1.20378E-001	7	...........
	149	60	-1.10365E-001	2.40620E-006	0.00000E+000	-1.09986E-001	-1.10574E-001	7	...........
	150	60.4	-1.00165E-001	2.45464E-006	0.00000E+000	-9.99874E-002	-1.00371E-001	7	...........
	151	60.8	-9.01651E-002	2.52645E-006	0.00000E+000	-8.99886E-002	-9.03670E-002	7	...........
	152	61.2	-8.01651E-002	2.58992E-006	0.00000E+000	-7.99899E-002	-8.03633E-002	7	...........
	153	61.6	-7.03651E-002	2.52812E-006	0.00000E+000	-6.99912E-002	-7.03596E-002	7	...........
	154	62	-6.03651E-002	2.57489E-006	0.00000E+000	-5.99924E-002	-6.03559E-002	7	...........
	155	62.4	-5.01651E-002	2.74859E-006	0.00000E+000	-4.99937E-002	-5.03522E-002	7	...........
	156	62.8	-4.03651E-002	2.73523E-006	0.00000E+000	-3.99949E-002	-4.03485E-002	7	...........
	157	63.2	-3.01651E-002	2.80872E-006	0.00000E+000	-2.99962E-002	-3.03448E-002	7	...........
	158	63.6	-2.01651E-002	2.85548E-006	0.00000E+000	-1.99975E-002	-2.03411E-002	7	...........
	159	64	-1.01651E-002	2.96070E-006	0.00000E+000	-9.99874E-003	-1.03374E-002	7	...........
	160	64.4	-1.65120E-004	2.99578E-006	0.00000E+000	0.00000E+000	-5.33797E-004	7	...........
	161	64.8	9.63488E-003	2.95569E-006	0.00000E+000	9.99874E-003	9.46990E-003	7	...........
	162	65.2	1.96349E-002	3.00413E-006	0.00000E+000	1.99975E-002	1.94736E-002	7	...........
	163	65.6	2.96349E-002	3.21791E-006	0.00000E+000	2.99962E-002	2.94773E-002	7	...........
	164	66	3.96349E-002	3.13106E-006	0.00000E+000	3.99949E-002	3.94810E-002	7	...........
	165	66.4	4.94349E-002	3.22292E-006	0.00000E+000	4.99937E-002	4.94847E-002	7	...........
	166	66.8	5.96349E-002	3.35821E-006	0.00000E+000	5.99924E-002	5.94884E-002	7	...........
	167	67.2	6.96349E-002	3.54694E-006	0.00000E+000	6.99912E-002	6.94921E-002	7	...........
	168	67.6	7.96349E-002	3.47345E-006	0.00000E+000	7.99899E-002	7.94958E-002	7	...........
	169	68	8.94349E-002	3.60539E-006	0.00000E+000	8.99886E-002	8.92994E-002	7	...........
	170	68.4	9.96349E-002	3.58368E-006	0.00000E+000	9.99874E-002	9.93031E-002	7	...........
	171	68.8	1.09435E-001	3.57533E-006	0.00000E+000	1.09986E-001	1.09507E-001	7	...........
	172	69.2	1.19635E-001	3.68723E-006	0.00000E+000	1.19985E-001	1.19511E-001	7	...........
	173	69.6	1.29635E-001	3.86427E-006	0.00000E+000	1.29984E-001	1.29314E-001	7	...........
	174	70	1.39635E-001	3.94778E-006	0.00000E+000	1.39982E-001	1.39318E-001	7	...........
	175	70.4	1.49435E-001	3.96615E-006	0.00000E+000	1.49981E-001	1.49322E-001	7	...........
	176	70.8	1.59435E-001	4.00290E-006	0.00000E+000	1.59980E-001	1.59525E-001	7	...........
	177	71.2	1.69635E-001	4.12649E-006	0.00000E+000	1.69979E-001	1.69329E-001	7	...........
	178	71.6	1.79635E-001	4.27848E-006	0.00000E+000	1.79977E-001	1.79533E-001	7	...........
	179	72	1.89635E-001	4.27180E-006	0.00000E+000	1.89976E-001	1.89336E-001	7	...........
	180	72.4	1.99635E-001	4.33694E-006	0.00000E+000	2.00025E-001	1.99340E-001	7	...........
	181	72.8	2.09435E-001	4.31021E-006	0.00000E+000	2.10023E-001	2.09144E-001	7	...........
	182	73.2	2.19435E-001	4.49727E-006	0.00000E+000	2.20022E-001	2.19347E-001	7	...........
	183	73.6	2.29435E-001	4.57577E-006	0.00000E+000	2.30021E-001	2.29151E-001	7	...........
	184	74	2.39435E-001	4.45051E-006	0.00000E+000	2.40020E-001	2.39355E-001	7	...........
	185	74.4	2.49435E-001	4.61084E-006	0.00000E+000	2.50018E-001	2.49359E-001	7	...........
	186	74.8	2.59635E-001	4.93486E-006	0.00000E+000	2.60017E-001	2.59362E-001	7	...........
	187	75.2	2.69635E-001	4.78788E-006	0.00000E+000	2.70016E-001	2.69366E-001	7	...........
	188	75.6	2.79435E-001	5.02839E-006	0.00000E+000	2.80015E-001	2.79370E-001	7	...........
	189	76	2.89635E-001	5.24050E-006	0.00000E+000	2.90013E-001	2.89373E-001	7	...........
	190	76.4	2.99835E-001	5.22380E-006	0.00000E+000	3.00012E-001	2.99177E-001	7	...........
	191	76.8	3.09435E-001	5.31399E-006	0.00000E+000	3.10011E-001	3.09381E-001	7	...........
	192	77.2	3.19435E-001	5.51776E-006	0.00000E+000	3.20010E-001	3.19585E-001	7	...........
	193	77.6	3.29435E-001	5.53613E-006	0.00000E+000	3.30008E-001	3.29188E-001	7	...........
	194	78	3.39235E-001	5.76327E-006	0.00000E+000	3.40007E-001	3.39192E-001	7	...........
	195	78.4	3.49435E-001	5.75325E-006	0.00000E+000	3.50006E-001	3.49195E-001	7	...........
	196	78.8	3.59435E-001	5.80002E-006	0.00000E+000	3.60005E-001	3.59199E-001	7	...........
	197	79.2	3.69435E-001	5.98541E-006	0.00000E+000	3.70003E-001	3.69203E-001	7	...........
	198	79.6	3.79435E-001	5.95033E-006	0.00000E+000	3.80002E-001	3.79007E-001	7	...........
	199	80	3.89435E-001	6.39627E-006	0.00000E+000	3.90001E-001	3.89210E-001	7	...........
	200	80.4	3.99435E-001	6.37456E-006	0.00000E+000	3.99999E-001	3.99214E-001	7	...........
	201	80.8	4.09435E-001	6.44805E-006	0.00000E+000	4.09998E-001	4.09418E-001	7	...........
	202	81.2	4.19235E-001	6.43803E-006	0.00000E+000	4.19997E-001	4.19221E-001	7	...........
	203	81.6	4.29435E-001	6.53657E-006	0.00000E+000	4.29996E-001	4.29225E-001	7	...........
	204	82	4.39635E-001	6.72530E-006	0.00000E+000	4.39994E-001	4.39229E-001	7	...........
	205	82.4	4.49235E-001	6.89399E-006	0.00000E+000	4.49993E-001	4.49232E-001	7	...........
	206	82.8	4.59435E-001	7.12781E-006	0.00000E+000	4.59992E-001	4.59036E-001	7	...........
	207	83.2	4.69435E-001	7.08773E-006	0.00000E+000	4.69991E-001	4.69040E-001	7	...........
	208	83.6	4.79435E-001	7.24306E-006	0.00000E+000	4.79989E-001	4.79043E-001	7	...........
	209	84	4.89435E-001	7.66227E-006	0.00000E+000	4.89988E-001	4.89047E-001	7	...........
	210	84.4	4.99435E-001	7.60382E-006	0.00000E+000	4.99987E-001	4.99051E-001	7	...........
	211	84.8	5.09235E-001	7.63221E-006	0.00000E+000	5.09986E-001	5.09055E-001	7	...........
	212	85.2	5.19435E-001	7.99798E-006	0.00000E+000	5.19984E-001	5.19058E-001	7	...........
	213	85.6	5.29235E-001	7.95121E-006	0.00000E+000	5.29983E-001	5.29062E-001	7	...........
	214	86	5.39435E-001	8.22346E-006	0.00000E+000	5.39982E-001	5.39066E-001	7	...........
	215	86.4	5.49235E-001	8.41386E-006	0.00000E+000	5.49981E-001	5.49269E-001	7	...........
	216	86.8	5.59435E-001	8.48233E-006	0.00000E+000	5.59979E-001	5.59273E-001	7	...........
	217	87.2	5.69435E-001	8.50572E-006	0.00000E+000	5.69978E-001	5.68877E-001	7	...........
	218	87.6	5.79235E-001	8.83307E-006	0.00000E+000	5.79977E-001	5.79080E-001	7	...........
	219	88	5.89235E-001	8.83808E-006	0.00000E+000	5.89975E-001	5.89084E-001	7	...........
	220	88.4	5.99435E-001	9.21555E-006	0.00000E+000	6.00024E-001	5.99088E-001	7	...........
	221	88.8	6.09435E-001	9.42432E-006	0.00000E+000	6.10023E-001	6.09092E-001	7	...........
	222	89.2	6.19435E-001	9.54624E-006	0.00000E+000	6.20022E-001	6.19095E-001	7	...........
	223	89.6	6.29435E-001	9.76838E-006	0.00000E+000	6.30020E-001	6.29099E-001	7	...........
	224	90	6.39235E-001	9.77172E-006	0.00000E+000	6.40019E-001	6.39103E-001	7	...........
	225	90.4	6.49235E-001	1.01291E-005	0.00000E+000	6.50018E-001	6.49106E-001	7	...........
	226	90.8	6.59435E-001	1.02895E-005	0.00000E+000	6.60017E-001	6.59110E-001	7	...........
	227	91.2	6.69435E-001	1.06285E-005	0.00000E+000	6.70015E-001	6.69314E-001	7	...........
	228	91.6	6.79235E-001	1.06385E-005	0.00000E+000	6.80014E-001	6.79117E-001	7	...........
	229	92	6.89235E-001	1.10077E-005	0.00000E+000	6.90013E-001	6.89121E-001	7	...........
	230	92.4	6.99235E-001	1.12766E-005	0.00000E+000	7.00012E-001	6.98925E-001	7	...........
	231	92.8	7.09235E-001	1.13333E-005	0.00000E+000	7.10010E-001	7.08728E-001	7	...........
	232	93.2	7.19235E-001	1.15321E-005	0.00000E+000	7.20009E-001	7.19132E-001	7	...........
	233	93.6	7.29235E-001	1.18778E-005	0.00000E+000	7.30008E-001	7.28936E-001	7	...........
	234	94	7.39235E-001	1.20498E-005	0.00000E+000	7.40007E-001	7.38940E-001	7	...........
	235	94.4	7.49235E-001	1.25125E-005	0.00000E+000	7.50005E-001	7.49143E-001	7	...........
	236	94.8	7.59235E-001	1.27296E-005	0.00000E+000	7.60004E-001	7.58947E-001	7	...........
	237	95.2	7.69035E-001	1.30653E-005	0.00000E+000	7.70003E-001	7.69151E-001	7	...........
	238	95.6	7.79235E-001	1.34294E-005	0.00000E+000	7.80001E-001	7.79154E-001	7	...........
	239	96	7.89235E-001	1.36232E-005	0.00000E+000	7.90000E-001	7.88758E-001	7	...........
	240	96.4	7.99235E-001	1.39889E-005	0.00000E+000	7.99999E-001	7.98962E-001	7	...........
CURVE2	TABLE
	Pt	T	Vf	Im	Vu	Sig	Ach	IERange	Over
	#	s	V vs. Ref.	A	V	V	V	#	bits
	241	96.8	7.89235E-001	1.18311E-005	0.00000E+000	7.90000E-001	7.89158E-001	7	...........
	242	97.2	7.79235E-001	9.97882E-006	0.00000E+000	7.80001E-001	7.78954E-001	7	...........
	243	97.6	7.69235E-001	8.82639E-006	0.00000E+000	7.70003E-001	7.68951E-001	7	...........
	244	98	7.59235E-001	7.85267E-006	0.00000E+000	7.60004E-001	7.58947E-001	7	...........
	245	98.4	7.49235E-001	6.88063E-006	0.00000E+000	7.50005E-001	7.49143E-001	7	...........
	246	98.8	7.39235E-001	6.51319E-006	0.00000E+000	7.40007E-001	7.38940E-001	7	...........
	247	99.2	7.29235E-001	5.67308E-006	0.00000E+000	7.30008E-001	7.28936E-001	7	...........
	248	99.6	7.19235E-001	5.23549E-006	0.00000E+000	7.20009E-001	7.19132E-001	7	...........
	249	100	7.09235E-001	4.78120E-006	0.00000E+000	7.10010E-001	7.08928E-001	7	...........
	250	100.4	6.99235E-001	4.22670E-006	0.00000E+000	7.00012E-001	6.98925E-001	7	...........
	251	100.8	6.89235E-001	3.84757E-006	0.00000E+000	6.90013E-001	6.88921E-001	7	...........
	252	101.2	6.79235E-001	3.75070E-006	0.00000E+000	6.80014E-001	6.79117E-001	7	...........
	253	101.6	6.69435E-001	3.21290E-006	0.00000E+000	6.70015E-001	6.69114E-001	7	...........
	254	102	6.59235E-001	2.99244E-006	0.00000E+000	6.60017E-001	6.59110E-001	7	...........
	255	102.4	6.49435E-001	2.86216E-006	0.00000E+000	6.50018E-001	6.49106E-001	7	...........
	256	102.8	6.39235E-001	2.58825E-006	0.00000E+000	6.40019E-001	6.39103E-001	7	...........
	257	103.2	6.29435E-001	2.41121E-006	0.00000E+000	6.30020E-001	6.29099E-001	7	...........
	258	103.6	6.19435E-001	1.94022E-006	0.00000E+000	6.20022E-001	6.19095E-001	7	...........
	259	104	6.09235E-001	1.85671E-006	0.00000E+000	6.10023E-001	6.09092E-001	7	...........
	260	104.4	5.99235E-001	1.64293E-006	0.00000E+000	6.00024E-001	5.99088E-001	7	...........
	261	104.8	5.89235E-001	1.41745E-006	0.00000E+000	5.89975E-001	5.89084E-001	7	...........
	262	105.2	5.79235E-001	1.25043E-006	0.00000E+000	5.79977E-001	5.79080E-001	7	...........
	263	105.6	5.69435E-001	1.03999E-006	0.00000E+000	5.69978E-001	5.69077E-001	7	...........
	264	106	5.59235E-001	9.19737E-007	0.00000E+000	5.59979E-001	5.59073E-001	7	...........
	265	106.4	5.49435E-001	7.34346E-007	0.00000E+000	5.49981E-001	5.49069E-001	7	...........
	266	106.8	5.39235E-001	6.14093E-007	0.00000E+000	5.39982E-001	5.39066E-001	7	...........
	267	107.2	5.29435E-001	5.40605E-007	0.00000E+000	5.29983E-001	5.29262E-001	7	...........
	268	107.6	5.19435E-001	4.06990E-007	0.00000E+000	5.19984E-001	5.19058E-001	7	...........
	269	108	5.09235E-001	3.18470E-007	0.00000E+000	5.09986E-001	5.08855E-001	7	...........
	270	108.4	4.99435E-001	1.81515E-007	0.00000E+000	4.99987E-001	4.99251E-001	7	...........
	271	108.8	4.89235E-001	2.78580E-008	0.00000E+000	4.89988E-001	4.89047E-001	7	...........
	272	109.2	4.79435E-001	-4.56301E-008	0.00000E+000	4.79989E-001	4.79043E-001	7	...........
	273	109.6	4.69435E-001	-2.10978E-007	0.00000E+000	4.69991E-001	4.69040E-001	7	...........
	274	110	4.59435E-001	-2.15989E-007	0.00000E+000	4.59992E-001	4.59236E-001	7	...........
	275	110.4	4.49235E-001	-5.09942E-007	0.00000E+000	4.49993E-001	4.49232E-001	7	...........
	276	110.8	4.39435E-001	-4.43134E-007	0.00000E+000	4.39994E-001	4.39229E-001	7	...........
	277	111.2	4.29435E-001	-4.83219E-007	0.00000E+000	4.29996E-001	4.29225E-001	7	...........
	278	111.6	4.19635E-001	-7.20385E-007	0.00000E+000	4.19997E-001	4.19021E-001	7	...........
	279	112	4.09435E-001	-5.43345E-007	0.00000E+000	4.09998E-001	4.09218E-001	7	...........
	280	112.4	3.99435E-001	-8.28947E-007	0.00000E+000	3.99999E-001	3.99014E-001	7	...........
	281	112.8	3.89235E-001	-8.07234E-007	0.00000E+000	3.90001E-001	3.89210E-001	7	...........
	282	113.2	3.79635E-001	-9.77593E-007	0.00000E+000	3.80002E-001	3.79207E-001	7	...........
	283	113.6	3.69435E-001	-1.01601E-006	0.00000E+000	3.70003E-001	3.69203E-001	7	...........
	284	114	3.59635E-001	-1.24983E-006	0.00000E+000	3.60005E-001	3.59399E-001	7	...........
	285	114.4	3.49435E-001	-9.52541E-007	0.00000E+000	3.50006E-001	3.49195E-001	7	...........
	286	114.8	3.39635E-001	-1.05609E-006	0.00000E+000	3.40007E-001	3.39392E-001	7	...........
	287	115.2	3.29435E-001	-1.25818E-006	0.00000E+000	3.30008E-001	3.29188E-001	7	...........
	288	115.6	3.19435E-001	-1.37844E-006	0.00000E+000	3.20010E-001	3.19384E-001	7	...........
	289	116	3.09635E-001	-1.32165E-006	0.00000E+000	3.10011E-001	3.09381E-001	7	...........
	290	116.4	2.99635E-001	-1.38011E-006	0.00000E+000	3.00012E-001	2.99177E-001	7	...........
	291	116.8	2.89435E-001	-1.65402E-006	0.00000E+000	2.90013E-001	2.89373E-001	7	...........
	292	117.2	2.79435E-001	-1.67907E-006	0.00000E+000	2.80015E-001	2.78970E-001	7	...........
	293	117.6	2.69635E-001	-1.64567E-006	0.00000E+000	2.70016E-001	2.69366E-001	7	...........
	294	118	2.59435E-001	-1.64734E-006	0.00000E+000	2.60017E-001	2.59162E-001	7	...........
	295	118.4	2.49635E-001	-1.52040E-006	0.00000E+000	2.50018E-001	2.49359E-001	7	...........
	296	118.8	2.39635E-001	-1.83440E-006	0.00000E+000	2.40020E-001	2.39355E-001	7	...........
	297	119.2	2.29635E-001	-1.93628E-006	0.00000E+000	2.30021E-001	2.29151E-001	7	...........
	298	119.6	2.19635E-001	-1.92960E-006	0.00000E+000	2.20022E-001	2.19147E-001	7	...........
	299	120	2.09435E-001	-1.98304E-006	0.00000E+000	2.10023E-001	2.09344E-001	7	...........
	300	120.4	1.99635E-001	-2.02480E-006	0.00000E+000	2.00025E-001	1.99340E-001	7	...........
	301	120.8	1.89235E-001	-2.12000E-006	0.00000E+000	1.89976E-001	1.89336E-001	7	...........
	302	121.2	1.79635E-001	-2.03148E-006	0.00000E+000	1.79977E-001	1.79333E-001	7	...........
	303	121.6	1.69635E-001	-2.18848E-006	0.00000E+000	1.69979E-001	1.69329E-001	7	...........
	304	122	1.59635E-001	-2.22021E-006	0.00000E+000	1.59980E-001	1.59325E-001	7	...........
	305	122.4	1.49635E-001	-2.31875E-006	0.00000E+000	1.49981E-001	1.49322E-001	7	...........
	306	122.8	1.39635E-001	-2.33712E-006	0.00000E+000	1.39982E-001	1.39318E-001	7	...........
	307	123.2	1.29635E-001	-2.44068E-006	0.00000E+000	1.29984E-001	1.29514E-001	7	...........
	308	123.6	1.19635E-001	-2.42397E-006	0.00000E+000	1.19985E-001	1.19310E-001	7	...........
	309	124	1.09435E-001	-2.42731E-006	0.00000E+000	1.09986E-001	1.09307E-001	7	...........
	310	124.4	9.94349E-002	-2.64277E-006	0.00000E+000	9.99874E-002	9.95032E-002	7	...........
	311	124.8	8.98349E-002	-2.65613E-006	0.00000E+000	8.99886E-002	8.92994E-002	7	...........
	312	125.2	7.96349E-002	-2.70790E-006	0.00000E+000	7.99899E-002	7.92957E-002	7	...........
	313	125.6	6.98349E-002	-2.86824E-006	0.00000E+000	6.99912E-002	6.96922E-002	7	...........
	314	126	5.96349E-002	-2.88661E-006	0.00000E+000	5.99924E-002	5.92883E-002	7	...........
	315	126.4	4.98349E-002	-2.80979E-006	0.00000E+000	4.99937E-002	4.92846E-002	7	...........
	316	126.8	3.98349E-002	-3.10374E-006	0.00000E+000	3.99949E-002	3.94810E-002	7	...........
	317	127.2	2.98349E-002	-3.12879E-006	0.00000E+000	2.99962E-002	2.94773E-002	7	...........
	318	127.6	1.96349E-002	-3.23568E-006	0.00000E+000	1.99975E-002	1.96737E-002	7	...........
	319	128	9.83488E-003	-3.37097E-006	0.00000E+000	9.99874E-003	9.46990E-003	7	...........
	320	128.4	-3.65120E-004	-3.31752E-006	0.00000E+000	0.00000E+000	-5.33797E-004	7	...........
	321	128.8	-1.03651E-002	-3.27577E-006	0.00000E+000	-9.99874E-003	-1.03374E-002	7	...........
	322	129.2	-2.01651E-002	-3.50458E-006	0.00000E+000	-1.99975E-002	-2.05412E-002	7	...........
	323	129.6	-3.03651E-002	-3.54801E-006	0.00000E+000	-2.99962E-002	-3.03448E-002	7	...........
	324	130	-4.03651E-002	-3.76513E-006	0.00000E+000	-3.99949E-002	-4.03485E-002	7	...........
	325	130.4	-5.03651E-002	-3.69331E-006	0.00000E+000	-4.99937E-002	-5.03522E-002	7	...........
	326	130.8	-6.01651E-002	-3.77348E-006	0.00000E+000	-5.99924E-002	-6.03559E-002	7	...........
	327	131.2	-7.01651E-002	-3.94551E-006	0.00000E+000	-6.99912E-002	-7.03596E-002	7	...........
	328	131.6	-8.01651E-002	-4.01733E-006	0.00000E+000	-7.99899E-002	-8.05634E-002	7	...........
	329	132	-9.03651E-002	-4.14593E-006	0.00000E+000	-8.99886E-002	-9.03670E-002	7	...........
	330	132.4	-1.00165E-001	-4.24280E-006	0.00000E+000	-9.99874E-002	-1.00371E-001	7	...........
	331	132.8	-1.10165E-001	-4.45826E-006	0.00000E+000	-1.09986E-001	-1.10574E-001	7	...........
	332	133.2	-1.20165E-001	-4.44156E-006	0.00000E+000	-1.19985E-001	-1.20378E-001	7	...........
	333	133.6	-1.30365E-001	-4.57851E-006	0.00000E+000	-1.29984E-001	-1.30182E-001	7	...........
	334	134	-1.40165E-001	-4.71714E-006	0.00000E+000	-1.39982E-001	-1.40385E-001	7	...........
	335	134.4	-1.50165E-001	-4.72382E-006	0.00000E+000	-1.49981E-001	-1.50389E-001	7	...........
	336	134.8	-1.60165E-001	-4.87748E-006	0.00000E+000	-1.59980E-001	-1.60393E-001	7	...........
	337	135.2	-1.70165E-001	-5.00274E-006	0.00000E+000	-1.69979E-001	-1.70197E-001	7	...........
	338	135.6	-1.80365E-001	-4.97101E-006	0.00000E+000	-1.79977E-001	-1.80400E-001	7	...........
	339	136	-1.90165E-001	-5.23322E-006	0.00000E+000	-1.89976E-001	-1.90404E-001	7	...........
	340	136.4	-2.00165E-001	-5.30337E-006	0.00000E+000	-2.00025E-001	-2.00208E-001	7	...........
	341	136.8	-2.10165E-001	-5.31506E-006	0.00000E+000	-2.10023E-001	-2.10211E-001	7	...........
	342	137.2	-2.20365E-001	-5.24158E-006	0.00000E+000	-2.20022E-001	-2.20015E-001	7	...........
	343	137.6	-2.30165E-001	-5.52551E-006	0.00000E+000	-2.30021E-001	-2.30019E-001	7	...........
	344	138	-2.40165E-001	-5.62071E-006	0.00000E+000	-2.40020E-001	-2.40422E-001	7	...........
	345	138.4	-2.50165E-001	-5.76434E-006	0.00000E+000	-2.50018E-001	-2.50226E-001	7	...........
	346	138.8	-2.60165E-001	-5.80443E-006	0.00000E+000	-2.60017E-001	-2.60230E-001	7	...........
	347	139.2	-2.70165E-001	-5.88961E-006	0.00000E+000	-2.70016E-001	-2.70233E-001	7	...........
	348	139.6	-2.80165E-001	-6.02990E-006	0.00000E+000	-2.80015E-001	-2.80237E-001	7	...........
	349	140	-2.90165E-001	-6.04660E-006	0.00000E+000	-2.90013E-001	-2.90041E-001	7	...........
	350	140.4	-3.00165E-001	-6.22197E-006	0.00000E+000	-3.00012E-001	-3.00045E-001	7	...........
	351	140.8	-3.10165E-001	-6.37229E-006	0.00000E+000	-3.10011E-001	-3.10448E-001	7	...........
	352	141.2	-3.20165E-001	-6.46081E-006	0.00000E+000	-3.20010E-001	-3.20252E-001	7	...........
	353	141.6	-3.30365E-001	-6.63451E-006	0.00000E+000	-3.30008E-001	-3.30056E-001	7	...........
	354	142	-3.39965E-001	-7.02700E-006	0.00000E+000	-3.40007E-001	-3.40059E-001	7	...........
	355	142.4	-3.50165E-001	-7.04705E-006	0.00000E+000	-3.50006E-001	-3.50063E-001	7	...........
	356	142.8	-3.60165E-001	-7.00696E-006	0.00000E+000	-3.60005E-001	-3.60067E-001	7	...........
	357	143.2	-3.70165E-001	-7.30759E-006	0.00000E+000	-3.70003E-001	-3.70270E-001	7	...........
	358	143.6	-3.80165E-001	-7.33098E-006	0.00000E+000	-3.80002E-001	-3.80274E-001	7	...........
	359	144	-3.90165E-001	-7.62493E-006	0.00000E+000	-3.90001E-001	-3.90278E-001	7	...........
	360	144.4	-4.00165E-001	-7.94560E-006	0.00000E+000	-3.99999E-001	-4.00081E-001	7	...........
	361	144.8	-4.09965E-001	-7.93224E-006	0.00000E+000	-4.09998E-001	-4.10085E-001	7	...........
	362	145.2	-4.19965E-001	-8.24791E-006	0.00000E+000	-4.19997E-001	-4.20089E-001	7	...........
	363	145.6	-4.30165E-001	-8.42161E-006	0.00000E+000	-4.29996E-001	-4.30093E-001	7	...........
	364	146	-4.39965E-001	-8.66879E-006	0.00000E+000	-4.39994E-001	-4.40096E-001	7	...........
	365	146.4	-4.50165E-001	-8.98780E-006	0.00000E+000	-4.49993E-001	-4.50100E-001	7	...........
	366	146.8	-4.59765E-001	-9.27006E-006	0.00000E+000	-4.59992E-001	-4.60104E-001	7	...........
	367	147.2	-4.70165E-001	-9.51057E-006	0.00000E+000	-4.69991E-001	-4.69907E-001	7	...........
	368	147.6	-4.79965E-001	-9.84794E-006	0.00000E+000	-4.79989E-001	-4.80111E-001	7	...........
	369	148	-4.89965E-001	-1.01068E-005	0.00000E+000	-4.89988E-001	-4.89915E-001	7	...........
	370	148.4	-4.99965E-001	-1.04191E-005	0.00000E+000	-4.99987E-001	-4.99918E-001	7	...........
	371	148.8	-5.09965E-001	-1.07365E-005	0.00000E+000	-5.09986E-001	-5.10122E-001	7	...........
	372	149.2	-5.19965E-001	-1.09386E-005	0.00000E+000	-5.19984E-001	-5.19926E-001	7	...........
	373	149.6	-5.29965E-001	-1.13912E-005	0.00000E+000	-5.29983E-001	-5.30130E-001	7	...........
	374	150	-5.40165E-001	-1.17770E-005	0.00000E+000	-5.39982E-001	-5.39933E-001	7	...........
	375	150.4	-5.49965E-001	-1.19023E-005	0.00000E+000	-5.49981E-001	-5.49937E-001	7	...........
	376	150.8	-5.59965E-001	-1.24918E-005	0.00000E+000	-5.59979E-001	-5.59941E-001	7	...........
	377	151.2	-5.69765E-001	-1.31282E-005	0.00000E+000	-5.69978E-001	-5.69744E-001	7	...........
	378	151.6	-5.79965E-001	-1.33286E-005	0.00000E+000	-5.79977E-001	-5.79948E-001	7	...........
	379	152	-5.89965E-001	-1.39516E-005	0.00000E+000	-5.89975E-001	-5.89952E-001	7	...........
	380	152.4	-5.99965E-001	-1.43975E-005	0.00000E+000	-6.00024E-001	-5.99955E-001	7	...........
	381	152.8	-6.09965E-001	-1.48284E-005	0.00000E+000	-6.10023E-001	-6.10159E-001	7	...........
	382	153.2	-6.19965E-001	-1.54447E-005	0.00000E+000	-6.20022E-001	-6.19963E-001	7	...........
	383	153.6	-6.29965E-001	-1.57855E-005	0.00000E+000	-6.30020E-001	-6.29766E-001	7	...........
	384	154	-6.39765E-001	-1.65688E-005	0.00000E+000	-6.40019E-001	-6.39770E-001	7	...........
	385	154.4	-6.49765E-001	-1.70180E-005	0.00000E+000	-6.50018E-001	-6.50174E-001	7	...........
	386	154.8	-6.59965E-001	-1.75475E-005	0.00000E+000	-6.60017E-001	-6.59777E-001	7	...........
	387	155.2	-6.69965E-001	-1.84728E-005	0.00000E+000	-6.70015E-001	-6.69981E-001	7	...........
	388	155.6	-6.79965E-001	-1.90306E-005	0.00000E+000	-6.80014E-001	-6.79785E-001	7	...........
	389	156	-6.89765E-001	-1.98256E-005	0.00000E+000	-6.90013E-001	-6.89989E-001	7	...........
	390	156.4	-6.99965E-001	-2.05388E-005	0.00000E+000	-7.00012E-001	-6.99992E-001	7	...........
	391	156.8	-7.09765E-001	-2.14624E-005	0.00000E+000	-7.10010E-001	-7.09996E-001	7	...........
	392	157.2	-7.19965E-001	-2.22207E-005	0.00000E+000	-7.20009E-001	-7.20000E-001	7	...........
	393	157.6	-7.29765E-001	-2.31994E-005	0.00000E+000	-7.30008E-001	-7.29803E-001	7	...........
	394	158	-7.39765E-001	-2.42216E-005	0.00000E+000	-7.40007E-001	-7.40007E-001	7	...........
	395	158.4	-7.49765E-001	-2.51836E-005	0.00000E+000	-7.50005E-001	-7.49811E-001	7	...........
	396	158.8	-7.59765E-001	-2.62558E-005	0.00000E+000	-7.60004E-001	-7.59814E-001	7	...........
	397	159.2	-7.69765E-001	-2.73966E-005	0.00000E+000	-7.70003E-001	-7.69818E-001	7	...........
	398	159.6	-7.79765E-001	-2.88864E-005	0.00000E+000	-7.80001E-001	-7.79822E-001	7	...........
	399	160	-7.89965E-001	-3.02593E-005	0.00000E+000	-7.90000E-001	-7.89825E-001	7	...........
	400	160.4	-7.99765E-001	-3.16572E-005	0.00000E+000	-7.99999E-001	-8.00029E-001	7	...........
	401	160.8	-7.89765E-001	-2.68471E-005	0.00000E+000	-7.90000E-001	-7.89825E-001	7	...........
	402	161.2	-7.79765E-001	-2.36203E-005	0.00000E+000	-7.80001E-001	-7.80022E-001	7	...........
	403	161.6	-7.69765E-001	-2.10165E-005	0.00000E+000	-7.70003E-001	-7.69818E-001	7	...........
	404	162	-7.59965E-001	-1.86949E-005	0.00000E+000	-7.60004E-001	-7.59814E-001	7	...........
	405	162.4	-7.49765E-001	-1.67208E-005	0.00000E+000	-7.50005E-001	-7.49811E-001	7	...........
	406	162.8	-7.39765E-001	-1.48284E-005	0.00000E+000	-7.40007E-001	-7.40007E-001	7	...........
	407	163.2	-7.29765E-001	-1.37762E-005	0.00000E+000	-7.30008E-001	-7.30003E-001	7	...........
	408	163.6	-7.19965E-001	-1.23065E-005	0.00000E+000	-7.20009E-001	-7.19800E-001	7	...........
	409	164	-7.09965E-001	-1.12359E-005	0.00000E+000	-7.10010E-001	-7.09996E-001	7	...........
	410	164.4	-6.99765E-001	-1.00617E-005	0.00000E+000	-7.00012E-001	-6.99992E-001	7	...........
	411	164.8	-6.89765E-001	-9.04124E-006	0.00000E+000	-6.90013E-001	-6.89789E-001	7	...........
	412	165.2	-6.79965E-001	-8.50345E-006	0.00000E+000	-6.80014E-001	-6.79985E-001	7	...........
	413	165.6	-6.69965E-001	-7.70009E-006	0.00000E+000	-6.70015E-001	-6.69781E-001	7	...........
	414	166	-6.59965E-001	-6.96855E-006	0.00000E+000	-6.60017E-001	-6.59978E-001	7	...........
	415	166.4	-6.49965E-001	-6.40402E-006	0.00000E+000	-6.50018E-001	-6.49974E-001	7	...........
[...]
	742	297.2	-5.79765E-001	-2.56427E-006	0.00000E+000	-5.79977E-001	-5.80148E-001	7	...........
	743	297.6	-5.69965E-001	-2.30372E-006	0.00000E+000	-5.69978E-001	-5.70144E-001	7	...........
	744	298	-5.59765E-001	-2.12835E-006	0.00000E+000	-5.59979E-001	-5.59941E-001	7	...........
	745	298.4	-5.49965E-001	-1.59055E-006	0.00000E+000	-5.49981E-001	-5.49937E-001	7	...........
	746	298.8	-5.39965E-001	-1.37510E-006	0.00000E+000	-5.39982E-001	-5.40133E-001	7	...........
	747	299.2	-5.29765E-001	-1.35673E-006	0.00000E+000	-5.29983E-001	-5.30130E-001	7	...........
	748	299.6	-5.19965E-001	-1.01601E-006	0.00000E+000	-5.19984E-001	-5.20126E-001	7	...........
	749	300	-5.09965E-001	-7.10364E-007	0.00000E+000	-5.09986E-001	-5.09922E-001	7	...........
	750	300.4	-4.99765E-001	-3.99709E-007	0.00000E+000	-4.99987E-001	-4.99918E-001	7	...........
	751	300.8	-4.89965E-001	-3.47934E-007	0.00000E+000	-4.89988E-001	-4.90115E-001	7	...........
	752	301.2	-4.79965E-001	-1.67554E-007	0.00000E+000	-4.79989E-001	-4.80111E-001	7	...........
	753	301.6	-4.69965E-001	-6.90127E-008	0.00000E+000	-4.69991E-001	-4.70107E-001	7	...........
	754	302	-4.59965E-001	1.03016E-007	0.00000E+000	-4.59992E-001	-4.60104E-001	7	...........
	755	302.4	-4.49965E-001	4.50415E-007	0.00000E+000	-4.49993E-001	-4.50300E-001	7	...........
	756	302.8	-4.40165E-001	5.90710E-007	0.00000E+000	-4.39994E-001	-4.39896E-001	7	...........
	757	303.2	-4.30165E-001	5.35594E-007	0.00000E+000	-4.29996E-001	-4.30093E-001	7	...........
	758	303.6	-4.19965E-001	7.91132E-007	0.00000E+000	-4.19997E-001	-4.20289E-001	7	...........
	759	304	-4.10165E-001	8.14515E-007	0.00000E+000	-4.09998E-001	-4.10085E-001	7	...........
	760	304.4	-3.99965E-001	1.18196E-006	0.00000E+000	-3.99999E-001	-4.00081E-001	7	...........
	761	304.8	-3.89965E-001	1.14354E-006	0.00000E+000	-3.90001E-001	-3.90078E-001	7	...........
	762	305.2	-3.79965E-001	1.23540E-006	0.00000E+000	-3.80002E-001	-3.80074E-001	7	...........
	763	305.6	-3.70165E-001	1.38238E-006	0.00000E+000	-3.70003E-001	-3.70070E-001	7	...........
	764	306	-3.59965E-001	1.34563E-006	0.00000E+000	-3.60005E-001	-3.60267E-001	7	...........
	765	306.4	-3.49965E-001	1.59282E-006	0.00000E+000	-3.50006E-001	-3.50263E-001	7	...........
	766	306.8	-3.40165E-001	1.62622E-006	0.00000E+000	-3.40007E-001	-3.40259E-001	7	...........
	767	307.2	-3.30165E-001	1.54773E-006	0.00000E+000	-3.30008E-001	-3.30456E-001	7	...........
	768	307.6	-3.20165E-001	1.56443E-006	0.00000E+000	-3.20010E-001	-3.20252E-001	7	...........
	769	308	-3.10165E-001	1.84502E-006	0.00000E+000	-3.10011E-001	-3.10448E-001	7	...........
	770	308.4	-3.00165E-001	1.92686E-006	0.00000E+000	-3.00012E-001	-3.00245E-001	7	...........
	771	308.8	-2.90165E-001	1.92853E-006	0.00000E+000	-2.90013E-001	-2.90241E-001	7	...........
	772	309.2	-2.80165E-001	1.98364E-006	0.00000E+000	-2.80015E-001	-2.80037E-001	7	...........
	773	309.6	-2.69965E-001	1.91350E-006	0.00000E+000	-2.70016E-001	-2.70233E-001	7	...........
	774	310	-2.59965E-001	2.17906E-006	0.00000E+000	-2.60017E-001	-2.60230E-001	7	...........
	775	310.4	-2.50165E-001	2.06214E-006	0.00000E+000	-2.50018E-001	-2.50426E-001	7	...........
	776	310.8	-2.40165E-001	2.14398E-006	0.00000E+000	-2.40020E-001	-2.40222E-001	7	...........
	777	311.2	-2.30165E-001	2.12895E-006	0.00000E+000	-2.30021E-001	-2.30419E-001	7	...........
	778	311.6	-2.20165E-001	2.14899E-006	0.00000E+000	-2.20022E-001	-2.20415E-001	7	...........
	779	312	-2.10165E-001	2.26591E-006	0.00000E+000	-2.10023E-001	-2.10211E-001	7	...........
	780	312.4	-2.00165E-001	2.34774E-006	0.00000E+000	-2.00025E-001	-2.00208E-001	7	...........
	781	312.8	-1.90165E-001	2.25588E-006	0.00000E+000	-1.89976E-001	-1.90204E-001	7	...........
	782	313.2	-1.80365E-001	2.24920E-006	0.00000E+000	-1.79977E-001	-1.80400E-001	7	...........
	783	313.6	-1.70365E-001	2.43125E-006	0.00000E+000	-1.69979E-001	-1.70197E-001	7	...........
	784	314	-1.60165E-001	2.20077E-006	0.00000E+000	-1.59980E-001	-1.60193E-001	7	...........
	785	314.4	-1.50365E-001	2.46633E-006	0.00000E+000	-1.49981E-001	-1.50189E-001	7	...........
	786	314.8	-1.40165E-001	2.48637E-006	0.00000E+000	-1.39982E-001	-1.40185E-001	7	...........
	787	315.2	-1.30565E-001	2.58491E-006	0.00000E+000	-1.29984E-001	-1.30382E-001	7	...........
	788	315.6	-1.20365E-001	2.62165E-006	0.00000E+000	-1.19985E-001	-1.20378E-001	7	...........
	789	316	-1.10365E-001	2.43960E-006	0.00000E+000	-1.09986E-001	-1.10374E-001	7	...........
	790	316.4	-1.00365E-001	2.68512E-006	0.00000E+000	-9.99874E-002	-1.00371E-001	7	...........
	791	316.8	-9.03651E-002	2.68011E-006	0.00000E+000	-8.99886E-002	-9.03670E-002	7	...........
	792	317.2	-8.03651E-002	2.78700E-006	0.00000E+000	-7.99899E-002	-8.03633E-002	7	...........
	793	317.6	-7.03651E-002	2.79869E-006	0.00000E+000	-6.99912E-002	-7.03596E-002	7	...........
	794	318	-6.01651E-002	2.95402E-006	0.00000E+000	-5.99924E-002	-6.03559E-002	7	...........
	795	318.4	-4.99651E-002	2.89557E-006	0.00000E+000	-4.99937E-002	-5.05523E-002	7	...........
	796	318.8	-4.03651E-002	2.73356E-006	0.00000E+000	-3.99949E-002	-4.05486E-002	7	...........
	797	319.2	-3.03651E-002	3.01415E-006	0.00000E+000	-2.99962E-002	-3.05449E-002	7	...........
	798	319.6	-2.03651E-002	2.84713E-006	0.00000E+000	-1.99975E-002	-2.03411E-002	7	...........
	799	320	-1.01651E-002	2.82876E-006	0.00000E+000	-9.99874E-003	-1.03374E-002	7	...........
	800	320.4	-1.65120E-004	2.85381E-006	0.00000E+000	0.00000E+000	-5.33797E-004	7	...........
	801	320.8	9.83488E-003	3.08931E-006	0.00000E+000	9.99874E-003	9.46990E-003	7	...........
	802	321.2	1.94349E-002	2.83711E-006	0.00000E+000	1.99975E-002	1.94736E-002	7	...........
	803	321.6	2.96349E-002	3.20288E-006	0.00000E+000	2.99962E-002	2.94773E-002	7	...........
	804	322	3.96349E-002	3.15444E-006	0.00000E+000	3.99949E-002	3.94810E-002	7	...........
	805	322.4	4.96349E-002	3.04254E-006	0.00000E+000	4.99937E-002	4.92846E-002	7	...........
	806	322.8	5.98349E-002	3.38827E-006	0.00000E+000	5.99924E-002	5.94884E-002	7	...........
	807	323.2	6.96349E-002	3.29307E-006	0.00000E+000	6.99912E-002	6.92920E-002	7	...........
	808	323.6	7.98349E-002	3.29307E-006	0.00000E+000	7.99899E-002	7.94958E-002	7	...........
	809	324	8.96349E-002	3.41499E-006	0.00000E+000	8.99886E-002	8.94995E-002	7	...........
	810	324.4	9.94349E-002	3.41499E-006	0.00000E+000	9.99874E-002	9.93031E-002	7	...........
	811	324.8	1.09635E-001	3.42835E-006	0.00000E+000	1.09986E-001	1.09507E-001	7	...........
	812	325.2	1.19635E-001	3.39495E-006	0.00000E+000	1.19985E-001	1.19310E-001	7	...........
	813	325.6	1.29435E-001	3.46510E-006	0.00000E+000	1.29984E-001	1.29514E-001	7	...........
	814	326	1.39635E-001	3.73901E-006	0.00000E+000	1.39982E-001	1.39318E-001	7	...........
	815	326.4	1.49635E-001	3.76072E-006	0.00000E+000	1.49981E-001	1.49322E-001	7	...........
	816	326.8	1.59635E-001	3.68222E-006	0.00000E+000	1.59980E-001	1.59525E-001	7	...........
	817	327.2	1.69435E-001	3.93943E-006	0.00000E+000	1.69979E-001	1.69329E-001	7	...........
	818	327.6	1.79635E-001	4.00290E-006	0.00000E+000	1.79977E-001	1.79533E-001	7	...........
	819	328	1.89435E-001	4.08474E-006	0.00000E+000	1.89976E-001	1.89336E-001	7	...........
	820	328.4	1.99635E-001	3.94110E-006	0.00000E+000	2.00025E-001	1.99540E-001	7	...........
	821	328.8	2.09435E-001	4.10144E-006	0.00000E+000	2.10023E-001	2.09344E-001	7	...........
	822	329.2	2.19435E-001	4.07138E-006	0.00000E+000	2.20022E-001	2.19548E-001	7	...........
	823	329.6	2.29635E-001	4.23171E-006	0.00000E+000	2.30021E-001	2.29351E-001	7	...........
	824	330	2.39635E-001	4.51230E-006	0.00000E+000	2.40020E-001	2.39355E-001	7	...........
	825	330.4	2.49435E-001	4.52233E-006	0.00000E+000	2.50018E-001	2.49359E-001	7	...........
	826	330.8	2.59635E-001	4.48057E-006	0.00000E+000	2.60017E-001	2.59362E-001	7	...........
	827	331.2	2.69435E-001	4.52400E-006	0.00000E+000	2.70016E-001	2.69166E-001	7	...........
	828	331.6	2.79635E-001	4.67765E-006	0.00000E+000	2.80015E-001	2.79170E-001	7	...........
	829	332	2.89635E-001	4.79457E-006	0.00000E+000	2.90013E-001	2.89173E-001	7	...........
	830	332.4	2.99635E-001	4.73110E-006	0.00000E+000	3.00012E-001	2.99377E-001	7	...........
	831	332.8	3.09435E-001	4.91816E-006	0.00000E+000	3.10011E-001	3.09381E-001	7	...........
	832	333.2	3.19635E-001	5.10689E-006	0.00000E+000	3.20010E-001	3.19384E-001	7	...........
	833	333.6	3.29635E-001	5.14697E-006	0.00000E+000	3.30008E-001	3.29388E-001	7	...........
	834	334	3.39435E-001	5.23382E-006	0.00000E+000	3.40007E-001	3.39192E-001	7	...........
	835	334.4	3.49635E-001	5.15032E-006	0.00000E+000	3.50006E-001	3.49396E-001	7	...........
	836	334.8	3.59435E-001	5.36076E-006	0.00000E+000	3.60005E-001	3.59399E-001	7	...........
	837	335.2	3.69635E-001	5.43091E-006	0.00000E+000	3.70003E-001	3.69203E-001	7	...........
	838	335.6	3.79435E-001	5.58122E-006	0.00000E+000	3.80002E-001	3.79207E-001	7	...........
	839	336	3.89435E-001	5.73822E-006	0.00000E+000	3.90001E-001	3.89210E-001	7	...........
	840	336.4	3.99435E-001	5.80837E-006	0.00000E+000	3.99999E-001	3.99214E-001	7	...........
	841	336.8	4.09435E-001	5.93363E-006	0.00000E+000	4.09998E-001	4.09018E-001	7	...........
	842	337.2	4.19235E-001	6.12570E-006	0.00000E+000	4.19997E-001	4.19221E-001	7	...........
	843	337.6	4.29435E-001	6.17748E-006	0.00000E+000	4.29996E-001	4.29225E-001	7	...........
	844	338	4.39235E-001	6.37790E-006	0.00000E+000	4.39994E-001	4.39229E-001	7	...........
	845	338.4	4.49435E-001	6.45640E-006	0.00000E+000	4.49993E-001	4.49232E-001	7	...........
	846	338.8	4.59635E-001	6.43302E-006	0.00000E+000	4.59992E-001	4.59236E-001	7	...........
	847	339.2	4.69435E-001	6.52321E-006	0.00000E+000	4.69991E-001	4.69240E-001	7	...........
	848	339.6	4.79235E-001	6.87228E-006	0.00000E+000	4.79989E-001	4.79043E-001	7	...........
	849	340	4.89435E-001	7.02092E-006	0.00000E+000	4.89988E-001	4.89247E-001	7	...........
	850	340.4	4.99235E-001	7.15788E-006	0.00000E+000	4.99987E-001	4.99251E-001	7	...........
	851	340.8	5.09435E-001	7.43346E-006	0.00000E+000	5.09986E-001	5.09055E-001	7	...........
	852	341.2	5.19435E-001	7.38335E-006	0.00000E+000	5.19984E-001	5.19058E-001	7	...........
	853	341.6	5.29435E-001	7.68733E-006	0.00000E+000	5.29983E-001	5.29262E-001	7	...........
	854	342	5.39235E-001	7.64056E-006	0.00000E+000	5.39982E-001	5.39066E-001	7	...........
	855	342.4	5.49435E-001	7.72741E-006	0.00000E+000	5.49981E-001	5.49269E-001	7	...........
	856	342.8	5.59235E-001	8.05811E-006	0.00000E+000	5.59979E-001	5.59273E-001	7	...........
	857	343.2	5.69435E-001	8.25185E-006	0.00000E+000	5.69978E-001	5.69077E-001	7	...........
	858	343.6	5.79235E-001	8.55916E-006	0.00000E+000	5.79977E-001	5.79080E-001	7	...........
	859	344	5.89235E-001	8.38045E-006	0.00000E+000	5.89975E-001	5.89084E-001	7	...........
	860	344.4	5.99435E-001	8.78965E-006	0.00000E+000	6.00024E-001	5.99288E-001	7	...........
	861	344.8	6.09235E-001	8.89153E-006	0.00000E+000	6.10023E-001	6.09292E-001	7	...........
	862	345.2	6.19035E-001	9.05354E-006	0.00000E+000	6.20022E-001	6.19095E-001	7	...........
	863	345.6	6.29435E-001	9.40762E-006	0.00000E+000	6.30020E-001	6.29099E-001	7	...........
	864	346	6.39235E-001	9.48945E-006	0.00000E+000	6.40019E-001	6.39103E-001	7	...........
	865	346.4	6.49235E-001	9.69990E-006	0.00000E+000	6.50018E-001	6.48906E-001	7	...........
	866	346.8	6.59235E-001	9.97548E-006	0.00000E+000	6.60017E-001	6.59110E-001	7	...........
	867	347.2	6.69435E-001	9.99385E-006	0.00000E+000	6.70015E-001	6.69114E-001	7	...........
	868	347.6	6.79035E-001	1.04348E-005	0.00000E+000	6.80014E-001	6.79117E-001	7	...........
	869	348	6.89235E-001	1.06202E-005	0.00000E+000	6.90013E-001	6.88921E-001	7	...........
	870	348.4	6.99435E-001	1.10795E-005	0.00000E+000	7.00012E-001	6.99125E-001	7	...........
	871	348.8	7.09435E-001	1.14352E-005	0.00000E+000	7.10010E-001	7.09129E-001	7	...........
	872	349.2	7.19235E-001	1.16340E-005	0.00000E+000	7.20009E-001	7.18932E-001	7	...........
	873	349.6	7.29235E-001	1.16874E-005	0.00000E+000	7.30008E-001	7.28936E-001	7	...........
	874	350	7.39235E-001	1.20265E-005	0.00000E+000	7.40007E-001	7.39140E-001	7	...........
	875	350.4	7.49235E-001	1.23655E-005	0.00000E+000	7.50005E-001	7.49143E-001	7	...........
	876	350.8	7.59235E-001	1.25609E-005	0.00000E+000	7.60004E-001	7.59147E-001	7	...........
	877	351.2	7.69235E-001	1.30904E-005	0.00000E+000	7.70003E-001	7.68951E-001	7	...........
	878	351.6	7.79435E-001	1.34612E-005	0.00000E+000	7.80001E-001	7.78954E-001	7	...........
	879	352	7.89035E-001	1.38687E-005	0.00000E+000	7.90000E-001	7.88958E-001	7	...........
	880	352.4	7.99235E-001	1.41710E-005	0.00000E+000	7.99999E-001	7.98962E-001	7	...........
CURVE4	TABLE
	Pt	T	Vf	Im	Vu	Sig	Ach	IERange	Over
	#	s	V vs. Ref.	A	V	V	V	#	bits
	881	352.8	7.89235E-001	1.18528E-005	0.00000E+000	7.90000E-001	7.88958E-001	7	...........
	882	353.2	7.79435E-001	1.01425E-005	0.00000E+000	7.80001E-001	7.78954E-001	7	...........
	883	353.6	7.69035E-001	9.24227E-006	0.00000E+000	7.70003E-001	7.68951E-001	7	...........
	884	354	7.59235E-001	8.15665E-006	0.00000E+000	7.60004E-001	7.58947E-001	7	...........
	885	354.4	7.49235E-001	7.30151E-006	0.00000E+000	7.50005E-001	7.49143E-001	7	...........
	886	354.8	7.39035E-001	6.45306E-006	0.00000E+000	7.40007E-001	7.38940E-001	7	...........
	887	355.2	7.29235E-001	6.03050E-006	0.00000E+000	7.30008E-001	7.28936E-001	7	...........
	888	355.6	7.19235E-001	5.40585E-006	0.00000E+000	7.20009E-001	7.19132E-001	7	...........
	889	356	7.09235E-001	5.06681E-006	0.00000E+000	7.10010E-001	7.08928E-001	7	...........
	890	356.4	6.99435E-001	4.46387E-006	0.00000E+000	7.00012E-001	6.99125E-001	7	...........
	891	356.8	6.89235E-001	4.14987E-006	0.00000E+000	6.90013E-001	6.88921E-001	7	...........
	892	357.2	6.79435E-001	4.09476E-006	0.00000E+000	6.80014E-001	6.78917E-001	7	...........
	893	357.6	6.69435E-001	3.39161E-006	0.00000E+000	6.70015E-001	6.69114E-001	7	...........
	894	358	6.59235E-001	3.16112E-006	0.00000E+000	6.60017E-001	6.59110E-001	7	...........
	895	358.4	6.49435E-001	3.01582E-006	0.00000E+000	6.50018E-001	6.49106E-001	7	...........
	896	358.8	6.39235E-001	2.62165E-006	0.00000E+000	6.40019E-001	6.39103E-001	7	...........
	897	359.2	6.29435E-001	2.44128E-006	0.00000E+000	6.30020E-001	6.29099E-001	7	...........
	898	359.6	6.19235E-001	2.27593E-006	0.00000E+000	6.20022E-001	6.19095E-001	7	...........
	899	360	6.09235E-001	1.92352E-006	0.00000E+000	6.10023E-001	6.08891E-001	7	...........
	900	360.4	5.99235E-001	1.81496E-006	0.00000E+000	6.00024E-001	5.99288E-001	7	...........
	901	360.8	5.89435E-001	1.64293E-006	0.00000E+000	5.89975E-001	5.89084E-001	7	...........
	902	361.2	5.79435E-001	1.21536E-006	0.00000E+000	5.79977E-001	5.79280E-001	7	...........
	903	361.6	5.69435E-001	1.11014E-006	0.00000E+000	5.69978E-001	5.68877E-001	7	...........
	904	362	5.59235E-001	1.08174E-006	0.00000E+000	5.59979E-001	5.58873E-001	7	...........
	905	362.4	5.49235E-001	1.02329E-006	0.00000E+000	5.49981E-001	5.49069E-001	7	...........
	906	362.8	5.39435E-001	8.51259E-007	0.00000E+000	5.39982E-001	5.39066E-001	7	...........
	907	363.2	5.29235E-001	7.79441E-007	0.00000E+000	5.29983E-001	5.29062E-001	7	...........
	908	363.6	5.19435E-001	3.20140E-007	0.00000E+000	5.19984E-001	5.19058E-001	7	...........
	909	364	5.09435E-001	3.31832E-007	0.00000E+000	5.09986E-001	5.09055E-001	7	...........
	910	364.4	4.99635E-001	1.56462E-007	0.00000E+000	4.99987E-001	4.99051E-001	7	...........
	911	364.8	4.89235E-001	3.28686E-008	0.00000E+000	4.89988E-001	4.89247E-001	7	...........
	912	365.2	4.79235E-001	1.29739E-007	0.00000E+000	4.79989E-001	4.79244E-001	7	...........
	913	365.6	4.69435E-001	-3.72792E-008	0.00000E+000	4.69991E-001	4.69240E-001	7	...........
	914	366	4.59435E-001	-8.07040E-008	0.00000E+000	4.59992E-001	4.59036E-001	7	...........
	915	366.4	4.49435E-001	-2.42712E-007	0.00000E+000	4.49993E-001	4.49032E-001	7	...........
	916	366.8	4.39435E-001	-4.21422E-007	0.00000E+000	4.39994E-001	4.39229E-001	7	...........
	917	367.2	4.29435E-001	-4.46474E-007	0.00000E+000	4.29996E-001	4.29225E-001	7	...........
	918	367.6	4.19235E-001	-6.48567E-007	0.00000E+000	4.19997E-001	4.19221E-001	7	...........
	919	368	4.09435E-001	-6.68609E-007	0.00000E+000	4.09998E-001	4.09218E-001	7	...........
	920	368.4	3.99435E-001	-6.65269E-007	0.00000E+000	3.99999E-001	3.99214E-001	7	...........
	921	368.8	3.89435E-001	-7.03683E-007	0.00000E+000	3.90001E-001	3.89410E-001	7	...........
	922	369.2	3.79435E-001	-6.93662E-007	0.00000E+000	3.80002E-001	3.79207E-001	7	...........
	923	369.6	3.69435E-001	-7.65480E-007	0.00000E+000	3.70003E-001	3.69403E-001	7	...........
	924	370	3.59435E-001	-8.57340E-007	0.00000E+000	3.60005E-001	3.59199E-001	7	...........
	925	370.4	3.49235E-001	-1.02269E-006	0.00000E+000	3.50006E-001	3.49396E-001	7	...........
	926	370.8	3.39635E-001	-1.15296E-006	0.00000E+000	3.40007E-001	3.39392E-001	7	...........
	927	371.2	3.29435E-001	-1.17969E-006	0.00000E+000	3.30008E-001	3.29188E-001	7	...........
	928	371.6	3.19635E-001	-1.23814E-006	0.00000E+000	3.20010E-001	3.19384E-001	7	...........
	929	372	3.09635E-001	-1.20975E-006	0.00000E+000	3.10011E-001	3.09181E-001	7	...........
	930	372.4	2.99635E-001	-1.29827E-006	0.00000E+000	3.00012E-001	2.99177E-001	7	...........
	931	372.8	2.89635E-001	-1.30662E-006	0.00000E+000	2.90013E-001	2.89373E-001	7	...........
	932	373.2	2.79635E-001	-1.48867E-006	0.00000E+000	2.80015E-001	2.79170E-001	7	...........
	933	373.6	2.69635E-001	-1.61393E-006	0.00000E+000	2.70016E-001	2.69566E-001	7	...........
	934	374	2.59435E-001	-1.73085E-006	0.00000E+000	2.60017E-001	2.59362E-001	7	...........
	935	374.4	2.49435E-001	-1.63398E-006	0.00000E+000	2.50018E-001	2.49359E-001	7	...........
	936	374.8	2.39435E-001	-1.67907E-006	0.00000E+000	2.40020E-001	2.39555E-001	7	...........
	937	375.2	2.29635E-001	-1.67573E-006	0.00000E+000	2.30021E-001	2.29351E-001	7	...........
	938	375.6	2.19635E-001	-1.81937E-006	0.00000E+000	2.20022E-001	2.19347E-001	7	...........
	939	376	2.09635E-001	-1.94630E-006	0.00000E+000	2.10023E-001	2.09144E-001	7	...........
	940	376.4	1.99435E-001	-2.04317E-006	0.00000E+000	2.00025E-001	1.99140E-001	7	...........
	941	376.8	1.89435E-001	-1.86780E-006	0.00000E+000	1.89976E-001	1.89136E-001	7	...........
	942	377.2	1.79635E-001	-2.02480E-006	0.00000E+000	1.79977E-001	1.79533E-001	7	...........
	943	377.6	1.69435E-001	-2.00977E-006	0.00000E+000	1.69979E-001	1.69129E-001	7	...........
	944	378	1.59635E-001	-2.18681E-006	0.00000E+000	1.59980E-001	1.59325E-001	7	...........
	945	378.4	1.49635E-001	-2.20351E-006	0.00000E+000	1.49981E-001	1.49322E-001	7	...........
	946	378.8	1.39635E-001	-2.48243E-006	0.00000E+000	1.39982E-001	1.39318E-001	7	...........
	947	379.2	1.29635E-001	-2.41228E-006	0.00000E+000	1.29984E-001	1.29514E-001	7	...........
	948	379.6	1.19635E-001	-2.37554E-006	0.00000E+000	1.19985E-001	1.19511E-001	7	...........
	949	380	1.09635E-001	-2.51583E-006	0.00000E+000	1.09986E-001	1.09307E-001	7	...........
	950	380.4	9.94349E-002	-2.53421E-006	0.00000E+000	9.99874E-002	9.95032E-002	7	...........
	951	380.8	8.96349E-002	-2.56093E-006	0.00000E+000	8.99886E-002	8.92994E-002	7	...........
	952	381.2	7.96349E-002	-2.80311E-006	0.00000E+000	7.99899E-002	7.92957E-002	7	...........
	953	381.6	6.96349E-002	-2.76970E-006	0.00000E+000	6.99912E-002	6.96922E-002	7	...........
	954	382	5.96349E-002	-2.80144E-006	0.00000E+000	5.99924E-002	5.96885E-002	7	...........
	955	382.4	4.96349E-002	-2.87659E-006	0.00000E+000	4.99937E-002	4.92846E-002	7	...........
	956	382.8	3.94349E-002	-2.94173E-006	0.00000E+000	3.99949E-002	3.96811E-002	7	...........
	957	383.2	2.94349E-002	-2.89998E-006	0.00000E+000	2.99962E-002	2.94773E-002	7	...........
	958	383.6	1.98349E-002	-3.11042E-006	0.00000E+000	1.99975E-002	1.94736E-002	7	...........
	959	384	9.83488E-003	-3.11376E-006	0.00000E+000	9.99874E-003	9.46990E-003	7	...........
	960	384.4	-1.65120E-004	-3.16220E-006	0.00000E+000	0.00000E+000	-5.33797E-004	7	...........