File: Data/CV_Steel_Disk_No_Material_2/CV_#4.DTA
EXPLAIN
TAG	CV
TITLE	LABEL	Cyclic Voltammetry	Test Identifier
DATE	LABEL	12-7-2017	Date
TIME	LABEL	17:22:23	Time
NOTES	NOTES	1	Notes...

PSTAT	PSTAT	IFC5000-01520	Potentiostat
VINIT	POTEN	0.00000E+000	F	Initial E (V)
VLIMIT1	POTEN	-8.00000E-001	F	Scan Limit 1 (V)
VLIMIT2	POTEN	8.00000E-001	F	Scan Limit 2 (V)
VFINAL	POTEN	0.00000E+000	F	Final E (V)
SCANRATE	QUANT	2.00000E+002	A Real Number
STEPSIZE	QUANT	1.00000E+001	Step Size (mV)
CYCLES	IQUANT	3	Cycles (#)
IMODE	SELECTOR	0	I/E Range Mode
IRANGE	QUANT	2.50000E+002	Max Current (mA)
AREA	QUANT	3.84800E-001	A Real Number
EQDELAY	QUANT	1.00000E+000	Equil. Time (s)
IRCOMP	SELECTOR	0	IRComp
PFCOR	QUANT	2.50000E+002	PF Corr. (ohm)
SAMPLINGMODE	SELECTOR	0	Sampling Mode
EOC	QUANT	0	Open Circuit (V)
SEQUENCER	TOGGLE	TRUE	Run as Sequence
PSTATMODEL	IQUANT	53	Pstat Model
PSTATSECTION	LABEL	IFC5000-01520	Pstat Section
PSTATSERIALNO	LABEL	01520	Pstat Serial Number
CTRLMODE	IQUANT	1	Control Mode
ELECTROMETER	IQUANT	0	RE=0 or CS=1
IESTAB	IQUANT	2	I/E Stability
CASPEED	IQUANT	4	Control Amp Speed
CONVENTION	IQUANT	1	Current Convention
ICHRANGE	IQUANT	2	Ich Range
ICHRANGEMODE	TOGGLE	F	Ich Auto Range
ICHOFFSETENABLE	TOGGLE	F	Ich Offset Enable
ICHOFFSET	QUANT	0	Ich Offset (V)
ICHFILTER	IQUANT	3	Ich Filter
VCHRANGE	IQUANT	2	Vch Range
VCHRANGEMODE	TOGGLE	F	Vch Auto Range
VCHOFFSETENABLE	TOGGLE	F	Vch Offset Enable
VCHOFFSET	QUANT	0	Vch Offset (V)
VCHFILTER	IQUANT	3	Vch Filter
IERANGELOWERLIMIT	IQUANT	7	I/E Range Lower Limit
IERANGEMODE	TOGGLE	T	I/E AutoRange
IERANGE	IQUANT	11	I/E Range
ACHSELECT	IQUANT	1	Ach Select
ACHRANGE	IQUANT	2	Ach Range
ACHOFFSETENABLE	TOGGLE	F	Ach Offset Enable
ACHOFFSET	QUANT	0	Ach Offset (V)
ACHFILTER	IQUANT	1	Ach Filter
CABLEID	IQUANT	14	Cable ID
DCCALDATE	LABEL	5-7-2017	DC Calibration Date
ACCALDATE	LABEL	12/3/2015	AC Calibration Date
FRAMEWORKVERSION	QUANT	7.01	Framework Version
INSTRUMENTVERSION	LABEL	4.00	Instrument Version
CURVE1	TABLE
	Pt	T	Vf	Im	Vu	Sig	Ach	IERange	Over
	#	s	V vs. Ref.	A	V	V	V	#	bits
	0	0.05	-3.65120E-004	-5.33904E-006	0.00000E+000	0.00000E+000	-5.33797E-004	11	...........
	1	0.1	-1.01651E-002	-5.54139E-006	0.00000E+000	-9.99874E-003	-1.03374E-002	10	...........
	2	0.15	-2.03651E-002	-5.88797E-006	0.00000E+000	-1.99975E-002	-2.03411E-002	9	...........
	3	0.2	-3.01651E-002	-6.85017E-006	0.00000E+000	-2.99962E-002	-3.05449E-002	8	...........
	4	0.25	-4.03651E-002	-7.46292E-006	0.00000E+000	-3.99949E-002	-4.05486E-002	7	...........
	5	0.3	-5.01651E-002	-8.34478E-006	0.00000E+000	-4.99937E-002	-5.03522E-002	7	...........
	6	0.35	-6.03651E-002	-8.57526E-006	0.00000E+000	-5.99924E-002	-6.03559E-002	7	...........
	7	0.4	-7.03651E-002	-9.13645E-006	0.00000E+000	-6.99912E-002	-7.03596E-002	7	...........
	8	0.45	-8.03651E-002	-9.79450E-006	0.00000E+000	-7.99899E-002	-8.03633E-002	7	...........
	9	0.5	-9.01651E-002	-1.01335E-005	0.00000E+000	-8.99886E-002	-9.03670E-002	7	...........
	10	0.55	-1.00365E-001	-1.06931E-005	0.00000E+000	-9.99874E-002	-1.00371E-001	7	...........
	11	0.6	-1.10165E-001	-1.11757E-005	0.00000E+000	-1.09986E-001	-1.10374E-001	7	...........
	12	0.65	-1.20365E-001	-1.15432E-005	0.00000E+000	-1.19985E-001	-1.20378E-001	7	...........
	13	0.7	-1.30165E-001	-1.20877E-005	0.00000E+000	-1.29984E-001	-1.30382E-001	7	...........
	14	0.75	-1.40365E-001	-1.25904E-005	0.00000E+000	-1.39982E-001	-1.40385E-001	7	...........
	15	0.8	-1.50165E-001	-1.29244E-005	0.00000E+000	-1.49981E-001	-1.50389E-001	7	...........
	16	0.85	-1.60165E-001	-1.32351E-005	0.00000E+000	-1.59980E-001	-1.60193E-001	7	...........
	17	0.9	-1.70365E-001	-1.38798E-005	0.00000E+000	-1.69979E-001	-1.70397E-001	7	...........
	18	0.95	-1.80165E-001	-1.41303E-005	0.00000E+000	-1.79977E-001	-1.80400E-001	7	...........
	19	1	-1.90165E-001	-1.47065E-005	0.00000E+000	-1.89976E-001	-1.90204E-001	7	...........
	20	1.05	-2.00165E-001	-1.49487E-005	0.00000E+000	-1.99975E-001	-2.00208E-001	7	...........
	21	1.1	-2.10165E-001	-1.53328E-005	0.00000E+000	-2.10023E-001	-2.10211E-001	7	...........
	22	1.15	-2.20365E-001	-1.57086E-005	0.00000E+000	-2.20022E-001	-2.20415E-001	7	...........
	23	1.2	-2.30165E-001	-1.63049E-005	0.00000E+000	-2.30021E-001	-2.30419E-001	7	...........
	24	1.25	-2.40165E-001	-1.66890E-005	0.00000E+000	-2.40020E-001	-2.40222E-001	7	...........
	25	1.3	-2.50165E-001	-1.71216E-005	0.00000E+000	-2.50018E-001	-2.50226E-001	7	...........
	26	1.35	-2.60165E-001	-1.76227E-005	0.00000E+000	-2.60017E-001	-2.60230E-001	7	...........
	27	1.4	-2.70165E-001	-1.79083E-005	0.00000E+000	-2.70016E-001	-2.70233E-001	7	...........
	28	1.45	-2.80165E-001	-1.82991E-005	0.00000E+000	-2.80015E-001	-2.80037E-001	7	...........
	29	1.5	-2.90165E-001	-1.90457E-005	0.00000E+000	-2.90013E-001	-2.90241E-001	7	...........
	30	1.55	-3.00165E-001	-1.94448E-005	0.00000E+000	-3.00012E-001	-3.00445E-001	7	...........
	31	1.6	-3.10365E-001	-1.98757E-005	0.00000E+000	-3.10011E-001	-3.10048E-001	7	...........
	32	1.65	-3.20165E-001	-2.03668E-005	0.00000E+000	-3.20010E-001	-3.20052E-001	7	...........
	33	1.7	-3.30165E-001	-2.09664E-005	0.00000E+000	-3.30008E-001	-3.30256E-001	7	...........
	34	1.75	-3.39965E-001	-2.13839E-005	0.00000E+000	-3.40007E-001	-3.40259E-001	7	...........
	35	1.8	-3.49965E-001	-2.21522E-005	0.00000E+000	-3.50006E-001	-3.50263E-001	7	...........
	36	1.85	-3.60165E-001	-2.26065E-005	0.00000E+000	-3.60005E-001	-3.60067E-001	7	...........
	37	1.9	-3.70165E-001	-2.33397E-005	0.00000E+000	-3.70003E-001	-3.70070E-001	7	...........
	38	1.95	-3.79965E-001	-2.36336E-005	0.00000E+000	-3.80002E-001	-3.80274E-001	7	...........
	39	2	-3.90165E-001	-2.45122E-005	0.00000E+000	-3.90001E-001	-3.90078E-001	7	...........
	40	2.05	-3.99965E-001	-2.49498E-005	0.00000E+000	-3.99999E-001	-4.00282E-001	7	...........
	41	2.1	-4.09965E-001	-2.57715E-005	0.00000E+000	-4.09998E-001	-4.10285E-001	7	...........
	42	2.15	-4.19965E-001	-2.63110E-005	0.00000E+000	-4.19997E-001	-4.20089E-001	7	...........
	43	2.2	-4.30165E-001	-2.70676E-005	0.00000E+000	-4.29996E-001	-4.30093E-001	7	...........
	44	2.25	-4.40165E-001	-2.79477E-005	0.00000E+000	-4.39994E-001	-4.40296E-001	7	...........
	45	2.3	-4.49965E-001	-2.84521E-005	0.00000E+000	-4.49993E-001	-4.50100E-001	7	...........
	46	2.35	-4.59965E-001	-2.94075E-005	0.00000E+000	-4.59992E-001	-4.59904E-001	7	...........
	47	2.4	-4.69765E-001	-3.00555E-005	0.00000E+000	-4.69991E-001	-4.70107E-001	7	...........
	48	2.45	-4.79965E-001	-3.08589E-005	0.00000E+000	-4.79989E-001	-4.80111E-001	7	...........
	49	2.5	-4.90165E-001	-3.18860E-005	0.00000E+000	-4.89988E-001	-4.89715E-001	7	...........
	50	2.55	-5.00165E-001	-3.26827E-005	0.00000E+000	-4.99987E-001	-5.00118E-001	7	...........
	51	2.6	-5.09965E-001	-3.34911E-005	0.00000E+000	-5.09986E-001	-5.10122E-001	7	...........
	52	2.65	-5.19765E-001	-3.46051E-005	0.00000E+000	-5.19984E-001	-5.19926E-001	7	...........
	53	2.7	-5.29965E-001	-3.51830E-005	0.00000E+000	-5.29983E-001	-5.29930E-001	7	...........
	54	2.75	-5.39965E-001	-3.63638E-005	0.00000E+000	-5.39982E-001	-5.40133E-001	7	...........
	55	2.8	-5.49965E-001	-3.74544E-005	0.00000E+000	-5.49981E-001	-5.49937E-001	7	...........
	56	2.85	-5.59965E-001	-3.84866E-005	0.00000E+000	-5.59979E-001	-5.59941E-001	7	...........
	57	2.9	-5.69965E-001	-3.93234E-005	0.00000E+000	-5.69978E-001	-5.69744E-001	7	...........
	58	2.95	-5.79765E-001	-4.05226E-005	0.00000E+000	-5.79977E-001	-5.79948E-001	7	...........
	59	3	-5.89965E-001	-4.16416E-005	0.00000E+000	-5.89975E-001	-5.89952E-001	7	...........
	60	3.05	-5.99965E-001	-4.27823E-005	0.00000E+000	-5.99974E-001	-6.00155E-001	7	...........
	61	3.1	-6.09965E-001	-4.40099E-005	0.00000E+000	-6.10023E-001	-6.09959E-001	7	...........
	62	3.15	-6.19765E-001	-4.54346E-005	0.00000E+000	-6.20022E-001	-6.19963E-001	7	...........
	63	3.2	-6.29965E-001	-4.64165E-005	0.00000E+000	-6.30020E-001	-6.29966E-001	8	...........
	64	3.25	-6.39765E-001	-4.78189E-005	0.00000E+000	-6.40019E-001	-6.39970E-001	8	...........
	65	3.3	-6.49765E-001	-4.93214E-005	0.00000E+000	-6.50018E-001	-6.49974E-001	8	...........
	66	3.35	-6.59965E-001	-5.07905E-005	0.00000E+000	-6.60017E-001	-6.59978E-001	8	...........
	67	3.4	-6.69965E-001	-5.21929E-005	0.00000E+000	-6.70015E-001	-6.69981E-001	8	...........
	68	3.45	-6.79765E-001	-5.33114E-005	0.00000E+000	-6.80014E-001	-6.79985E-001	8	...........
	69	3.5	-6.89965E-001	-5.52313E-005	0.00000E+000	-6.90013E-001	-6.89989E-001	8	...........
	70	3.55	-6.99765E-001	-5.70344E-005	0.00000E+000	-7.00012E-001	-6.99992E-001	8	...........
	71	3.6	-7.09965E-001	-5.86537E-005	0.00000E+000	-7.10010E-001	-7.09596E-001	8	...........
	72	3.65	-7.19965E-001	-6.02063E-005	0.00000E+000	-7.20009E-001	-7.20000E-001	8	...........
	73	3.7	-7.29965E-001	-6.20761E-005	0.00000E+000	-7.30008E-001	-7.30003E-001	8	...........
	74	3.75	-7.39765E-001	-6.42798E-005	0.00000E+000	-7.40007E-001	-7.40007E-001	8	...........
	75	3.8	-7.49765E-001	-6.64835E-005	0.00000E+000	-7.50005E-001	-7.50011E-001	8	...........
	76	3.85	-7.59565E-001	-6.84702E-005	0.00000E+000	-7.60004E-001	-7.59814E-001	8	...........
	77	3.9	-7.69765E-001	-7.06238E-005	0.00000E+000	-7.70003E-001	-7.69818E-001	8	...........
	78	3.95	-7.79965E-001	-7.30612E-005	0.00000E+000	-7.80001E-001	-7.79822E-001	8	...........
	79	4	-7.89765E-001	-7.56155E-005	0.00000E+000	-7.90000E-001	-7.89825E-001	8	...........
	80	4.05	-7.99565E-001	-7.79027E-005	0.00000E+000	-7.99999E-001	-7.99829E-001	8	...........
	81	4.1	-7.89765E-001	-5.93382E-005	0.00000E+000	-7.90000E-001	-7.90026E-001	8	...........
	82	4.15	-7.79765E-001	-4.68506E-005	0.00000E+000	-7.80001E-001	-7.79822E-001	8	...........
	83	4.2	-7.69765E-001	-3.79190E-005	0.00000E+000	-7.70003E-001	-7.70018E-001	8	...........
	84	4.25	-7.59765E-001	-3.10075E-005	0.00000E+000	-7.60004E-001	-7.59614E-001	7	...........
	85	4.3	-7.49765E-001	-2.52888E-005	0.00000E+000	-7.50005E-001	-7.49811E-001	7	...........
	86	4.35	-7.39765E-001	-2.04837E-005	0.00000E+000	-7.40007E-001	-7.39807E-001	7	...........
	87	4.4	-7.29965E-001	-1.65654E-005	0.00000E+000	-7.30008E-001	-7.29803E-001	7	...........
	88	4.45	-7.19765E-001	-1.32969E-005	0.00000E+000	-7.20009E-001	-7.20000E-001	7	...........
	89	4.5	-7.09965E-001	-1.04709E-005	0.00000E+000	-7.10010E-001	-7.09796E-001	7	...........
	90	4.55	-6.99765E-001	-7.84205E-006	0.00000E+000	-7.00012E-001	-6.99992E-001	7	...........
	91	4.6	-6.89765E-001	-5.78606E-006	0.00000E+000	-6.90013E-001	-6.89989E-001	7	...........
	92	4.65	-6.79765E-001	-3.75010E-006	0.00000E+000	-6.80014E-001	-6.79785E-001	7	...........
	93	4.7	-6.69765E-001	-1.92960E-006	0.00000E+000	-6.70015E-001	-6.70181E-001	7	...........
	94	4.75	-6.59965E-001	-4.46474E-007	0.00000E+000	-6.60017E-001	-6.59777E-001	7	...........
	95	4.8	-6.49965E-001	6.55847E-007	0.00000E+000	-6.50018E-001	-6.49974E-001	7	...........
	96	4.85	-6.39765E-001	1.85504E-006	0.00000E+000	-6.40019E-001	-6.39970E-001	7	...........
	97	4.9	-6.29965E-001	2.94233E-006	0.00000E+000	-6.30020E-001	-6.29966E-001	7	...........
	98	4.95	-6.19965E-001	3.76239E-006	0.00000E+000	-6.20022E-001	-6.20163E-001	7	...........
	99	5	-6.09965E-001	4.73110E-006	0.00000E+000	-6.10023E-001	-6.09759E-001	7	...........
	100	5.05	-5.99765E-001	5.51107E-006	0.00000E+000	-5.99974E-001	-5.99955E-001	7	...........
	101	5.1	-5.89965E-001	6.15577E-006	0.00000E+000	-5.89975E-001	-5.89952E-001	7	...........
	102	5.15	-5.79965E-001	6.73532E-006	0.00000E+000	-5.79977E-001	-5.80148E-001	7	...........
	103	5.2	-5.69965E-001	7.16289E-006	0.00000E+000	-5.69978E-001	-5.70144E-001	7	...........
	104	5.25	-5.59965E-001	7.65392E-006	0.00000E+000	-5.59979E-001	-5.59941E-001	7	...........
	105	5.3	-5.49765E-001	8.20341E-006	0.00000E+000	-5.49981E-001	-5.50137E-001	7	...........
	106	5.35	-5.39965E-001	8.32200E-006	0.00000E+000	-5.39982E-001	-5.39933E-001	7	...........
	107	5.4	-5.30165E-001	8.95166E-006	0.00000E+000	-5.29983E-001	-5.30330E-001	7	...........
	108	5.45	-5.20165E-001	9.20719E-006	0.00000E+000	-5.19984E-001	-5.20126E-001	7	...........
	109	5.5	-5.10165E-001	9.28903E-006	0.00000E+000	-5.09986E-001	-5.10122E-001	7	...........
	110	5.55	-4.99965E-001	9.92704E-006	0.00000E+000	-4.99987E-001	-5.00118E-001	7	...........
	111	5.6	-4.89965E-001	1.02293E-005	0.00000E+000	-4.89988E-001	-4.90115E-001	7	...........
	112	5.65	-4.79965E-001	1.04214E-005	0.00000E+000	-4.79989E-001	-4.80111E-001	7	...........
	113	5.7	-4.69765E-001	1.05717E-005	0.00000E+000	-4.69991E-001	-4.70107E-001	7	...........
	114	5.75	-4.59965E-001	1.08507E-005	0.00000E+000	-4.59992E-001	-4.60104E-001	7	...........
	115	5.8	-4.49965E-001	1.08640E-005	0.00000E+000	-4.49993E-001	-4.50100E-001	7	...........
	116	5.85	-4.39965E-001	1.10327E-005	0.00000E+000	-4.39994E-001	-4.40296E-001	7	...........
	117	5.9	-4.29965E-001	1.10728E-005	0.00000E+000	-4.29996E-001	-4.30093E-001	7	...........
	118	5.95	-4.19965E-001	1.13818E-005	0.00000E+000	-4.19997E-001	-4.20089E-001	7	...........
	119	6	-4.10165E-001	1.12599E-005	0.00000E+000	-4.09998E-001	-4.10285E-001	7	...........
	120	6.05	-3.99965E-001	1.17008E-005	0.00000E+000	-3.99999E-001	-3.99881E-001	7	...........
	121	6.1	-3.90165E-001	1.14619E-005	0.00000E+000	-3.90001E-001	-3.90278E-001	7	...........
	122	6.15	-3.79965E-001	1.19446E-005	0.00000E+000	-3.80002E-001	-3.80074E-001	7	...........
	123	6.2	-3.69965E-001	1.16473E-005	0.00000E+000	-3.70003E-001	-3.70270E-001	7	...........
	124	6.25	-3.60165E-001	1.20498E-005	0.00000E+000	-3.60005E-001	-3.60267E-001	7	...........
	125	6.3	-3.50165E-001	1.20515E-005	0.00000E+000	-3.50006E-001	-3.50063E-001	7	...........
	126	6.35	-3.39965E-001	1.21000E-005	0.00000E+000	-3.40007E-001	-3.40259E-001	7	...........
	127	6.4	-3.30165E-001	1.23187E-005	0.00000E+000	-3.30008E-001	-3.30056E-001	7	...........
	128	6.45	-3.20165E-001	1.21801E-005	0.00000E+000	-3.20010E-001	-3.20252E-001	7	...........
	129	6.5	-3.10365E-001	1.22870E-005	0.00000E+000	-3.10011E-001	-3.10248E-001	7	...........
	130	6.55	-3.00165E-001	1.24874E-005	0.00000E+000	-3.00012E-001	-3.00045E-001	7	...........
	131	6.6	-2.90165E-001	1.23672E-005	0.00000E+000	-2.90013E-001	-2.90241E-001	7	...........
	132	6.65	-2.80165E-001	1.23538E-005	0.00000E+000	-2.80015E-001	-2.80237E-001	7	...........
	133	6.7	-2.70365E-001	1.23338E-005	0.00000E+000	-2.70016E-001	-2.70233E-001	7	...........
	134	6.75	-2.60165E-001	1.24574E-005	0.00000E+000	-2.60017E-001	-2.60430E-001	7	...........
	135	6.8	-2.50165E-001	1.26879E-005	0.00000E+000	-2.50018E-001	-2.50226E-001	7	...........
	136	6.85	-2.40165E-001	1.27079E-005	0.00000E+000	-2.40020E-001	-2.40222E-001	7	...........
	137	6.9	-2.29965E-001	1.25192E-005	0.00000E+000	-2.30021E-001	-2.30219E-001	7	...........
	138	6.95	-2.20165E-001	1.24290E-005	0.00000E+000	-2.20022E-001	-2.20215E-001	7	...........
	139	7	-2.10365E-001	1.27881E-005	0.00000E+000	-2.10023E-001	-2.10211E-001	7	...........
	140	7.05	-2.00165E-001	1.26444E-005	0.00000E+000	-1.99975E-001	-2.00408E-001	7	...........
	141	7.1	-1.90165E-001	1.27380E-005	0.00000E+000	-1.89976E-001	-1.90204E-001	7	...........
	142	7.15	-1.80365E-001	1.27948E-005	0.00000E+000	-1.79977E-001	-1.80400E-001	7	...........
	143	7.2	-1.70165E-001	1.26160E-005	0.00000E+000	-1.69979E-001	-1.70197E-001	7	...........
	144	7.25	-1.60165E-001	1.27363E-005	0.00000E+000	-1.59980E-001	-1.60393E-001	7	...........
	145	7.3	-1.50165E-001	1.28432E-005	0.00000E+000	-1.49981E-001	-1.50189E-001	7	...........
	146	7.35	-1.40165E-001	1.28833E-005	0.00000E+000	-1.39982E-001	-1.40185E-001	7	...........
	147	7.4	-1.30365E-001	1.28398E-005	0.00000E+000	-1.29984E-001	-1.30382E-001	7	...........
	148	7.45	-1.20165E-001	1.29501E-005	0.00000E+000	-1.19985E-001	-1.20178E-001	7	...........
	149	7.5	-1.10165E-001	1.29618E-005	0.00000E+000	-1.09986E-001	-1.10574E-001	7	...........
	150	7.55	-1.00165E-001	1.31021E-005	0.00000E+000	-9.99874E-002	-1.00371E-001	7	...........
	151	7.6	-9.01651E-002	1.32507E-005	0.00000E+000	-8.99886E-002	-9.03670E-002	7	...........
	152	7.65	-8.03651E-002	1.33108E-005	0.00000E+000	-7.99899E-002	-8.03633E-002	7	...........
	153	7.7	-7.01651E-002	1.31722E-005	0.00000E+000	-6.99912E-002	-7.03596E-002	7	...........
	154	7.75	-6.03651E-002	1.33526E-005	0.00000E+000	-5.99924E-002	-6.03559E-002	7	...........
	155	7.8	-5.01651E-002	1.34027E-005	0.00000E+000	-4.99937E-002	-5.03522E-002	7	...........
	156	7.85	-4.03651E-002	1.34177E-005	0.00000E+000	-3.99949E-002	-4.03485E-002	7	...........
	157	7.9	-3.03651E-002	1.35447E-005	0.00000E+000	-2.99962E-002	-3.03448E-002	7	...........
	158	7.95	-2.01651E-002	1.36850E-005	0.00000E+000	-1.99975E-002	-2.03411E-002	7	...........
	159	8	-1.03651E-002	1.37067E-005	0.00000E+000	-9.99874E-003	-1.05375E-002	7	...........
	160	8.05	-1.65120E-004	1.40374E-005	0.00000E+000	0.00000E+000	-3.33723E-004	7	...........
	161	8.1	9.63488E-003	1.41827E-005	0.00000E+000	9.99874E-003	9.46990E-003	7	...........
	162	8.15	1.96349E-002	1.40942E-005	0.00000E+000	1.99975E-002	1.96737E-002	7	...........
	163	8.2	2.96349E-002	1.42779E-005	0.00000E+000	2.99962E-002	2.94773E-002	7	...........
	164	8.25	3.96349E-002	1.45685E-005	0.00000E+000	3.99949E-002	3.94810E-002	7	...........
	165	8.3	4.96349E-002	1.44733E-005	0.00000E+000	4.99937E-002	4.94847E-002	7	...........
	166	8.35	5.98349E-002	1.48925E-005	0.00000E+000	5.99924E-002	5.96885E-002	7	...........
	167	8.4	6.98349E-002	1.48140E-005	0.00000E+000	6.99912E-002	6.94921E-002	7	...........
	168	8.45	7.96349E-002	1.51714E-005	0.00000E+000	7.99899E-002	7.94958E-002	7	...........
	169	8.5	8.96349E-002	1.53067E-005	0.00000E+000	8.99886E-002	8.94995E-002	7	...........
	170	8.55	9.94349E-002	1.51146E-005	0.00000E+000	9.99874E-002	9.95032E-002	7	...........
	171	8.6	1.09635E-001	1.54721E-005	0.00000E+000	1.09986E-001	1.09507E-001	7	...........
	172	8.65	1.19435E-001	1.55622E-005	0.00000E+000	1.19985E-001	1.19511E-001	7	...........
	173	8.7	1.29835E-001	1.56474E-005	0.00000E+000	1.29984E-001	1.29514E-001	7	...........
	174	8.75	1.39635E-001	1.60366E-005	0.00000E+000	1.39982E-001	1.39518E-001	7	...........
	175	8.8	1.49635E-001	1.62103E-005	0.00000E+000	1.49981E-001	1.49322E-001	7	...........
	176	8.85	1.59635E-001	1.62353E-005	0.00000E+000	1.59980E-001	1.59525E-001	7	...........
	177	8.9	1.69435E-001	1.65710E-005	0.00000E+000	1.69979E-001	1.69329E-001	7	...........
	178	8.95	1.79635E-001	1.66044E-005	0.00000E+000	1.79977E-001	1.79333E-001	7	...........
	179	9	1.89635E-001	1.69886E-005	0.00000E+000	1.89976E-001	1.89536E-001	7	...........
	180	9.05	1.99435E-001	1.73210E-005	0.00000E+000	1.99975E-001	1.99140E-001	7	...........
	181	9.1	2.09635E-001	1.73928E-005	0.00000E+000	2.10023E-001	2.09544E-001	7	...........
	182	9.15	2.19635E-001	1.76633E-005	0.00000E+000	2.20022E-001	2.19347E-001	7	...........
	183	9.2	2.29435E-001	1.80391E-005	0.00000E+000	2.30021E-001	2.29351E-001	7	...........
	184	9.25	2.39435E-001	1.81043E-005	0.00000E+000	2.40020E-001	2.39355E-001	7	...........
	185	9.3	2.49435E-001	1.83331E-005	0.00000E+000	2.50018E-001	2.49359E-001	7	...........
	186	9.35	2.59635E-001	1.85803E-005	0.00000E+000	2.60017E-001	2.59362E-001	7	...........
	187	9.4	2.69635E-001	1.87556E-005	0.00000E+000	2.70016E-001	2.69366E-001	7	...........
	188	9.45	2.79435E-001	1.90930E-005	0.00000E+000	2.80015E-001	2.79170E-001	7	...........
	189	9.5	2.89635E-001	1.93218E-005	0.00000E+000	2.90013E-001	2.89173E-001	7	...........
	190	9.55	2.99435E-001	1.96843E-005	0.00000E+000	3.00012E-001	2.99377E-001	7	...........
	191	9.6	3.09635E-001	2.00484E-005	0.00000E+000	3.10011E-001	3.09381E-001	7	...........
	192	9.65	3.19635E-001	2.02822E-005	0.00000E+000	3.20010E-001	3.19184E-001	7	...........
	193	9.7	3.29435E-001	2.05227E-005	0.00000E+000	3.30008E-001	3.29388E-001	7	...........
	194	9.75	3.39435E-001	2.08116E-005	0.00000E+000	3.40007E-001	3.39392E-001	7	...........
	195	9.8	3.49635E-001	2.11256E-005	0.00000E+000	3.50006E-001	3.49195E-001	7	...........
	196	9.85	3.59635E-001	2.15382E-005	0.00000E+000	3.60005E-001	3.59399E-001	7	...........
	197	9.9	3.69635E-001	2.18321E-005	0.00000E+000	3.70003E-001	3.69403E-001	7	...........
	198	9.95	3.79435E-001	2.21812E-005	0.00000E+000	3.80002E-001	3.79207E-001	7	...........
	199	10	3.89435E-001	2.26622E-005	0.00000E+000	3.90001E-001	3.89010E-001	7	...........
	200	10.05	3.99635E-001	2.31649E-005	0.00000E+000	3.99999E-001	3.99214E-001	7	...........
	201	10.1	4.09435E-001	2.34255E-005	0.00000E+000	4.09998E-001	4.09218E-001	7	...........
	202	10.15	4.19435E-001	2.39182E-005	0.00000E+000	4.19997E-001	4.19221E-001	7	...........
	203	10.2	4.29235E-001	2.41086E-005	0.00000E+000	4.29996E-001	4.29225E-001	7	...........
	204	10.25	4.39435E-001	2.45295E-005	0.00000E+000	4.39994E-001	4.39029E-001	7	...........
	205	10.3	4.49235E-001	2.49003E-005	0.00000E+000	4.49993E-001	4.49232E-001	7	...........
	206	10.35	4.59435E-001	2.54932E-005	0.00000E+000	4.59992E-001	4.59236E-001	7	...........
	207	10.4	4.69435E-001	2.58489E-005	0.00000E+000	4.69991E-001	4.69240E-001	7	...........
	208	10.45	4.79235E-001	2.61896E-005	0.00000E+000	4.79989E-001	4.79043E-001	7	...........
	209	10.5	4.89235E-001	2.67959E-005	0.00000E+000	4.89988E-001	4.89247E-001	7	...........
	210	10.55	4.99235E-001	2.71149E-005	0.00000E+000	4.99987E-001	4.99051E-001	7	...........
	211	10.6	5.09435E-001	2.75993E-005	0.00000E+000	5.09986E-001	5.09055E-001	7	...........
	212	10.65	5.19035E-001	2.82089E-005	0.00000E+000	5.19984E-001	5.19058E-001	7	...........
	213	10.7	5.29235E-001	2.84962E-005	0.00000E+000	5.29983E-001	5.29062E-001	7	...........
	214	10.75	5.39435E-001	2.89822E-005	0.00000E+000	5.39982E-001	5.39066E-001	7	...........
	215	10.8	5.49235E-001	2.96319E-005	0.00000E+000	5.49981E-001	5.48869E-001	7	...........
	216	10.85	5.59235E-001	2.99726E-005	0.00000E+000	5.59979E-001	5.59073E-001	7	...........
	217	10.9	5.69235E-001	3.03317E-005	0.00000E+000	5.69978E-001	5.69077E-001	7	...........
	218	10.95	5.79435E-001	3.11016E-005	0.00000E+000	5.79977E-001	5.79080E-001	7	...........
	219	11	5.89235E-001	3.17146E-005	0.00000E+000	5.89975E-001	5.89084E-001	7	...........
	220	11.05	5.99235E-001	3.20971E-005	0.00000E+000	5.99974E-001	5.98888E-001	7	...........
	221	11.1	6.09235E-001	3.27652E-005	0.00000E+000	6.10023E-001	6.09092E-001	7	...........
	222	11.15	6.19435E-001	3.33213E-005	0.00000E+000	6.20022E-001	6.19095E-001	7	...........
	223	11.2	6.29435E-001	3.38341E-005	0.00000E+000	6.30020E-001	6.29099E-001	7	...........
	224	11.25	6.39235E-001	3.44053E-005	0.00000E+000	6.40019E-001	6.38903E-001	7	...........
	225	11.3	6.49435E-001	3.49932E-005	0.00000E+000	6.50018E-001	6.48906E-001	7	...........
	226	11.35	6.59235E-001	3.55477E-005	0.00000E+000	6.60017E-001	6.59110E-001	7	...........
	227	11.4	6.69235E-001	3.62542E-005	0.00000E+000	6.70015E-001	6.68914E-001	7	...........
	228	11.45	6.79235E-001	3.71110E-005	0.00000E+000	6.80014E-001	6.78917E-001	7	...........
	229	11.5	6.89035E-001	3.78208E-005	0.00000E+000	6.90013E-001	6.89121E-001	7	...........
	230	11.55	6.99235E-001	3.82517E-005	0.00000E+000	7.00012E-001	6.99125E-001	7	...........
	231	11.6	7.09235E-001	3.91987E-005	0.00000E+000	7.10010E-001	7.08928E-001	7	...........
	232	11.65	7.19235E-001	4.02209E-005	0.00000E+000	7.20009E-001	7.18932E-001	7	...........
	233	11.7	7.29235E-001	4.08672E-005	0.00000E+000	7.30008E-001	7.28936E-001	7	...........
	234	11.75	7.39235E-001	4.17040E-005	0.00000E+000	7.40007E-001	7.38940E-001	7	...........
	235	11.8	7.49235E-001	4.25357E-005	0.00000E+000	7.50005E-001	7.48943E-001	7	...........
	236	11.85	7.59035E-001	4.35262E-005	0.00000E+000	7.60004E-001	7.58947E-001	7	...........
	237	11.9	7.69235E-001	4.45032E-005	0.00000E+000	7.70003E-001	7.68751E-001	7	...........
	238	11.95	7.79235E-001	4.55544E-005	0.00000E+000	7.80001E-001	7.78954E-001	8	...........
	239	12	7.89435E-001	4.66563E-005	0.00000E+000	7.90000E-001	7.88958E-001	8	...........
	240	12.05	7.99235E-001	4.76579E-005	0.00000E+000	7.99999E-001	7.98962E-001	8	...........
CURVE2	TABLE
	Pt	T	Vf	Im	Vu	Sig	Ach	IERange	Over
	#	s	V vs. Ref.	A	V	V	V	#	bits
	241	12.1	7.89035E-001	3.59550E-005	0.00000E+000	7.90000E-001	7.89158E-001	8	...........
	242	12.15	7.79235E-001	2.91425E-005	0.00000E+000	7.80001E-001	7.79154E-001	7	...........
	243	12.2	7.69435E-001	2.39315E-005	0.00000E+000	7.70003E-001	7.68951E-001	7	...........
	244	12.25	7.59235E-001	2.02087E-005	0.00000E+000	7.60004E-001	7.58947E-001	7	...........
	245	12.3	7.49235E-001	1.70571E-005	0.00000E+000	7.50005E-001	7.48943E-001	7	...........
	246	12.35	7.39235E-001	1.44282E-005	0.00000E+000	7.40007E-001	7.39140E-001	7	...........
	247	12.4	7.29435E-001	1.21935E-005	0.00000E+000	7.30008E-001	7.29136E-001	7	...........
	248	12.45	7.19235E-001	1.03062E-005	0.00000E+000	7.20009E-001	7.19132E-001	7	...........
	249	12.5	7.09235E-001	8.69779E-006	0.00000E+000	7.10010E-001	7.08928E-001	7	...........
	250	12.55	6.99235E-001	7.26978E-006	0.00000E+000	7.00012E-001	6.99125E-001	7	...........
	251	12.6	6.89235E-001	6.03718E-006	0.00000E+000	6.90013E-001	6.89121E-001	7	...........
	252	12.65	6.79235E-001	4.87641E-006	0.00000E+000	6.80014E-001	6.78917E-001	7	...........
	253	12.7	6.69435E-001	3.70895E-006	0.00000E+000	6.70015E-001	6.69114E-001	7	...........
	254	12.75	6.59035E-001	3.00246E-006	0.00000E+000	6.60017E-001	6.59110E-001	7	...........
	255	12.8	6.49435E-001	1.96861E-006	0.00000E+000	6.50018E-001	6.49106E-001	7	...........
	256	12.85	6.39435E-001	1.08676E-006	0.00000E+000	6.40019E-001	6.38903E-001	7	...........
	257	12.9	6.29435E-001	5.52296E-007	0.00000E+000	6.30020E-001	6.29099E-001	7	...........
	258	12.95	6.19435E-001	-2.54403E-007	0.00000E+000	6.20022E-001	6.18895E-001	7	...........
	259	13	6.09235E-001	-8.17256E-007	0.00000E+000	6.10023E-001	6.09092E-001	7	...........
	260	13.05	5.99235E-001	-1.50537E-006	0.00000E+000	6.00024E-001	5.99088E-001	7	...........
	261	13.1	5.89435E-001	-1.96467E-006	0.00000E+000	5.89975E-001	5.89084E-001	7	...........
	262	13.15	5.79435E-001	-2.65613E-006	0.00000E+000	5.79977E-001	5.78880E-001	7	...........
	263	13.2	5.69235E-001	-3.02858E-006	0.00000E+000	5.69978E-001	5.69077E-001	7	...........
	264	13.25	5.59235E-001	-3.57640E-006	0.00000E+000	5.59979E-001	5.58873E-001	7	...........
	265	13.3	5.49235E-001	-4.03069E-006	0.00000E+000	5.49981E-001	5.49069E-001	7	...........
	266	13.35	5.39435E-001	-4.33801E-006	0.00000E+000	5.39982E-001	5.39066E-001	7	...........
	267	13.4	5.29235E-001	-4.76557E-006	0.00000E+000	5.29983E-001	5.29262E-001	7	...........
	268	13.45	5.19235E-001	-5.19314E-006	0.00000E+000	5.19984E-001	5.19458E-001	7	...........
	269	13.5	5.09235E-001	-5.49711E-006	0.00000E+000	5.09986E-001	5.09055E-001	7	...........
	270	13.55	4.99435E-001	-5.91132E-006	0.00000E+000	4.99987E-001	4.99251E-001	7	...........
	271	13.6	4.89435E-001	-6.27375E-006	0.00000E+000	4.89988E-001	4.89047E-001	7	...........
	272	13.65	4.79235E-001	-6.41906E-006	0.00000E+000	4.79989E-001	4.79244E-001	7	...........
	273	13.7	4.69435E-001	-6.78817E-006	0.00000E+000	4.69991E-001	4.69240E-001	7	...........
	274	13.75	4.59235E-001	-7.05707E-006	0.00000E+000	4.59992E-001	4.59236E-001	7	...........
	275	13.8	4.49235E-001	-7.01197E-006	0.00000E+000	4.49993E-001	4.49032E-001	7	...........
	276	13.85	4.39435E-001	-7.58150E-006	0.00000E+000	4.39994E-001	4.39229E-001	7	...........
	277	13.9	4.29235E-001	-7.75353E-006	0.00000E+000	4.29996E-001	4.29225E-001	7	...........
	278	13.95	4.19235E-001	-8.18110E-006	0.00000E+000	4.19997E-001	4.19221E-001	7	...........
	279	14	4.09235E-001	-8.21784E-006	0.00000E+000	4.09998E-001	4.09218E-001	7	...........
	280	14.05	3.99435E-001	-8.32474E-006	0.00000E+000	3.99999E-001	3.99414E-001	7	...........
	281	14.1	3.89635E-001	-8.40491E-006	0.00000E+000	3.90001E-001	3.89210E-001	7	...........
	282	14.15	3.79435E-001	-8.65710E-006	0.00000E+000	3.80002E-001	3.79207E-001	7	...........
	283	14.2	3.69435E-001	-8.89260E-006	0.00000E+000	3.70003E-001	3.69203E-001	7	...........
	284	14.25	3.59635E-001	-9.21494E-006	0.00000E+000	3.60005E-001	3.59399E-001	7	...........
	285	14.3	3.49435E-001	-9.03623E-006	0.00000E+000	3.50006E-001	3.49396E-001	7	...........
	286	14.35	3.39435E-001	-9.19490E-006	0.00000E+000	3.40007E-001	3.39392E-001	7	...........
	287	14.4	3.29435E-001	-9.54230E-006	0.00000E+000	3.30008E-001	3.29388E-001	7	...........
	288	14.45	3.19435E-001	-9.75441E-006	0.00000E+000	3.20010E-001	3.19184E-001	7	...........
	289	14.5	3.09435E-001	-9.63750E-006	0.00000E+000	3.10011E-001	3.09181E-001	7	...........
	290	14.55	2.99435E-001	-9.94148E-006	0.00000E+000	3.00012E-001	2.99377E-001	7	...........
	291	14.6	2.89435E-001	-9.85964E-006	0.00000E+000	2.90013E-001	2.89373E-001	7	...........
	292	14.65	2.79635E-001	-1.01202E-005	0.00000E+000	2.80015E-001	2.79170E-001	7	...........
	293	14.7	2.69435E-001	-1.02822E-005	0.00000E+000	2.70016E-001	2.69366E-001	7	...........
	294	14.75	2.59635E-001	-1.03657E-005	0.00000E+000	2.60017E-001	2.59362E-001	7	...........
	295	14.8	2.49635E-001	-1.05043E-005	0.00000E+000	2.50018E-001	2.49559E-001	7	...........
	296	14.85	2.39435E-001	-1.06897E-005	0.00000E+000	2.40020E-001	2.39555E-001	7	...........
	297	14.9	2.29435E-001	-1.06830E-005	0.00000E+000	2.30021E-001	2.29351E-001	7	...........
	298	14.95	2.19835E-001	-1.08517E-005	0.00000E+000	2.20022E-001	2.19347E-001	7	...........
	299	15	2.09635E-001	-1.10154E-005	0.00000E+000	2.10023E-001	2.09344E-001	7	...........
	300	15.05	1.99635E-001	-1.11641E-005	0.00000E+000	2.00025E-001	1.99540E-001	7	...........
	301	15.1	1.89835E-001	-1.11841E-005	0.00000E+000	1.90026E-001	1.89136E-001	7	...........
	302	15.15	1.79635E-001	-1.12075E-005	0.00000E+000	1.79977E-001	1.79533E-001	7	...........
	303	15.2	1.69635E-001	-1.15532E-005	0.00000E+000	1.69979E-001	1.69529E-001	7	...........
	304	15.25	1.59635E-001	-1.14246E-005	0.00000E+000	1.59980E-001	1.59525E-001	7	...........
	305	15.3	1.49835E-001	-1.17737E-005	0.00000E+000	1.49981E-001	1.49522E-001	7	...........
	306	15.35	1.39635E-001	-1.19257E-005	0.00000E+000	1.39982E-001	1.39518E-001	7	...........
	307	15.4	1.29635E-001	-1.20025E-005	0.00000E+000	1.29984E-001	1.29314E-001	7	...........
	308	15.45	1.19635E-001	-1.21261E-005	0.00000E+000	1.19985E-001	1.19310E-001	7	...........
	309	15.5	1.09635E-001	-1.21294E-005	0.00000E+000	1.09986E-001	1.09307E-001	7	...........
	310	15.55	9.96349E-002	-1.22113E-005	0.00000E+000	9.99874E-002	9.93031E-002	7	...........
	311	15.6	8.96349E-002	-1.25253E-005	0.00000E+000	8.99886E-002	8.94995E-002	7	...........
	312	15.65	7.96349E-002	-1.26772E-005	0.00000E+000	7.99899E-002	7.94958E-002	7	...........
	313	15.7	6.96349E-002	-1.27507E-005	0.00000E+000	6.99912E-002	6.94921E-002	7	...........
	314	15.75	5.94349E-002	-1.30246E-005	0.00000E+000	5.99924E-002	5.92883E-002	7	...........
	315	15.8	4.96349E-002	-1.29695E-005	0.00000E+000	4.99937E-002	4.92846E-002	7	...........
	316	15.85	3.96349E-002	-1.32985E-005	0.00000E+000	3.99949E-002	3.92809E-002	7	...........
	317	15.9	2.96349E-002	-1.32501E-005	0.00000E+000	2.99962E-002	2.94773E-002	7	...........
	318	15.95	1.96349E-002	-1.34238E-005	0.00000E+000	1.99975E-002	1.94736E-002	7	...........
	319	16	9.63488E-003	-1.34706E-005	0.00000E+000	9.99874E-003	9.46990E-003	7	...........
	320	16.05	-3.65120E-004	-1.35741E-005	0.00000E+000	0.00000E+000	-5.33797E-004	7	...........
	321	16.1	-1.03651E-002	-1.37846E-005	0.00000E+000	-9.99874E-003	-1.03374E-002	7	...........
	322	16.15	-2.03651E-002	-1.40318E-005	0.00000E+000	-1.99975E-002	-2.03411E-002	7	...........
	323	16.2	-3.03651E-002	-1.40050E-005	0.00000E+000	-2.99962E-002	-3.05449E-002	7	...........
	324	16.25	-4.01651E-002	-1.41186E-005	0.00000E+000	-3.99949E-002	-4.03485E-002	7	...........
	325	16.3	-5.03651E-002	-1.42405E-005	0.00000E+000	-4.99937E-002	-5.05523E-002	7	...........
	326	16.35	-6.01651E-002	-1.44376E-005	0.00000E+000	-5.99924E-002	-6.03559E-002	7	...........
	327	16.4	-7.01651E-002	-1.46764E-005	0.00000E+000	-6.99912E-002	-7.03596E-002	7	...........
	328	16.45	-8.01651E-002	-1.47650E-005	0.00000E+000	-7.99899E-002	-8.03633E-002	7	...........
	329	16.5	-9.01651E-002	-1.49103E-005	0.00000E+000	-8.99886E-002	-9.05671E-002	7	...........
	330	16.55	-1.00165E-001	-1.51074E-005	0.00000E+000	-9.99874E-002	-1.00371E-001	7	...........
	331	16.6	-1.10365E-001	-1.52159E-005	0.00000E+000	-1.09986E-001	-1.10374E-001	7	...........
	332	16.65	-1.20365E-001	-1.54882E-005	0.00000E+000	-1.19985E-001	-1.20378E-001	7	...........
	333	16.7	-1.30365E-001	-1.55533E-005	0.00000E+000	-1.29984E-001	-1.30382E-001	7	...........
	334	16.75	-1.40165E-001	-1.58706E-005	0.00000E+000	-1.39982E-001	-1.40185E-001	7	...........
	335	16.8	-1.50165E-001	-1.57370E-005	0.00000E+000	-1.49981E-001	-1.50389E-001	7	...........
	336	16.85	-1.60165E-001	-1.62247E-005	0.00000E+000	-1.59980E-001	-1.60393E-001	7	...........
	337	16.9	-1.70165E-001	-1.63015E-005	0.00000E+000	-1.69979E-001	-1.70197E-001	7	...........
	338	16.95	-1.79965E-001	-1.64485E-005	0.00000E+000	-1.79977E-001	-1.80400E-001	7	...........
	339	17	-1.90165E-001	-1.67458E-005	0.00000E+000	-1.89976E-001	-1.90404E-001	7	...........
	340	17.05	-2.00365E-001	-1.72819E-005	0.00000E+000	-1.99975E-001	-2.00208E-001	7	...........
	341	17.1	-2.10165E-001	-1.72819E-005	0.00000E+000	-2.09973E-001	-2.10411E-001	7	...........
	342	17.15	-2.20165E-001	-1.75642E-005	0.00000E+000	-2.20022E-001	-2.20215E-001	7	...........
	343	17.2	-2.30165E-001	-1.78849E-005	0.00000E+000	-2.30021E-001	-2.30219E-001	7	...........
	344	17.25	-2.40165E-001	-1.83108E-005	0.00000E+000	-2.40020E-001	-2.40222E-001	7	...........
	345	17.3	-2.50165E-001	-1.85596E-005	0.00000E+000	-2.50018E-001	-2.50226E-001	7	...........
	346	17.35	-2.60165E-001	-1.87567E-005	0.00000E+000	-2.60017E-001	-2.60230E-001	7	...........
	347	17.4	-2.70165E-001	-1.90907E-005	0.00000E+000	-2.70016E-001	-2.70233E-001	7	...........
	348	17.45	-2.79965E-001	-1.95835E-005	0.00000E+000	-2.80015E-001	-2.80237E-001	7	...........
	349	17.5	-2.90165E-001	-1.99075E-005	0.00000E+000	-2.90013E-001	-2.90241E-001	7	...........
	350	17.55	-3.00365E-001	-2.02816E-005	0.00000E+000	-3.00012E-001	-3.00245E-001	7	...........
	351	17.6	-3.10165E-001	-2.05304E-005	0.00000E+000	-3.10011E-001	-3.10248E-001	7	...........
	352	17.65	-3.20165E-001	-2.09129E-005	0.00000E+000	-3.20010E-001	-3.20252E-001	7	...........
	353	17.7	-3.30165E-001	-2.16428E-005	0.00000E+000	-3.30008E-001	-3.30256E-001	7	...........
	354	17.75	-3.40165E-001	-2.18532E-005	0.00000E+000	-3.40007E-001	-3.40059E-001	7	...........
	355	17.8	-3.49965E-001	-2.24528E-005	0.00000E+000	-3.50006E-001	-3.50263E-001	7	...........
	356	17.85	-3.60165E-001	-2.29138E-005	0.00000E+000	-3.60005E-001	-3.60267E-001	7	...........
	357	17.9	-3.69965E-001	-2.34416E-005	0.00000E+000	-3.70003E-001	-3.70270E-001	7	...........
	358	17.95	-3.80165E-001	-2.39493E-005	0.00000E+000	-3.80002E-001	-3.80074E-001	7	...........
	359	18	-3.89965E-001	-2.46291E-005	0.00000E+000	-3.90001E-001	-3.90078E-001	7	...........
	360	18.05	-4.00165E-001	-2.50683E-005	0.00000E+000	-3.99999E-001	-4.00081E-001	7	...........
	361	18.1	-4.09965E-001	-2.55210E-005	0.00000E+000	-4.09998E-001	-4.10085E-001	7	...........
	362	18.15	-4.19965E-001	-2.62057E-005	0.00000E+000	-4.19997E-001	-4.20289E-001	7	...........
	363	18.2	-4.29965E-001	-2.68604E-005	0.00000E+000	-4.29996E-001	-4.29893E-001	7	...........
	364	18.25	-4.39965E-001	-2.74617E-005	0.00000E+000	-4.39994E-001	-4.39896E-001	7	...........
	365	18.3	-4.49965E-001	-2.80630E-005	0.00000E+000	-4.49993E-001	-4.50100E-001	7	...........
	366	18.35	-4.59965E-001	-2.87711E-005	0.00000E+000	-4.59992E-001	-4.59904E-001	7	...........
	367	18.4	-4.69965E-001	-2.95778E-005	0.00000E+000	-4.69991E-001	-4.70107E-001	7	...........
	368	18.45	-4.79965E-001	-3.02609E-005	0.00000E+000	-4.79989E-001	-4.79911E-001	7	...........
	369	18.5	-4.89965E-001	-3.09775E-005	0.00000E+000	-4.89988E-001	-4.89915E-001	7	...........
	370	18.55	-4.99965E-001	-3.15954E-005	0.00000E+000	-4.99987E-001	-5.00118E-001	7	...........
	371	18.6	-5.09965E-001	-3.25541E-005	0.00000E+000	-5.09986E-001	-5.10122E-001	7	...........
	372	18.65	-5.19965E-001	-3.35245E-005	0.00000E+000	-5.19984E-001	-5.20126E-001	7	...........
	373	18.7	-5.29965E-001	-3.42577E-005	0.00000E+000	-5.29983E-001	-5.30130E-001	7	...........
	374	18.75	-5.40165E-001	-3.51362E-005	0.00000E+000	-5.39982E-001	-5.39933E-001	7	...........
	375	18.8	-5.49965E-001	-3.63020E-005	0.00000E+000	-5.49981E-001	-5.49937E-001	7	...........
	376	18.85	-5.59765E-001	-3.71354E-005	0.00000E+000	-5.59979E-001	-5.59941E-001	7	...........
	377	18.9	-5.69965E-001	-3.81476E-005	0.00000E+000	-5.69978E-001	-5.69944E-001	7	...........
	378	18.95	-5.79965E-001	-3.90645E-005	0.00000E+000	-5.79977E-001	-5.79948E-001	7	...........
	379	19	-5.89965E-001	-4.00733E-005	0.00000E+000	-5.89975E-001	-5.89952E-001	7	...........
	380	19.05	-5.99965E-001	-4.10921E-005	0.00000E+000	-5.99974E-001	-5.99955E-001	7	...........
	381	19.1	-6.09965E-001	-4.22963E-005	0.00000E+000	-6.09973E-001	-6.09959E-001	7	...........
	382	19.15	-6.19965E-001	-4.35255E-005	0.00000E+000	-6.20022E-001	-6.19963E-001	7	...........
	383	19.2	-6.29965E-001	-4.45761E-005	0.00000E+000	-6.30020E-001	-6.29966E-001	7	...........
	384	19.25	-6.39965E-001	-4.59324E-005	0.00000E+000	-6.40019E-001	-6.39970E-001	8	...........
	385	19.3	-6.49765E-001	-4.67838E-005	0.00000E+000	-6.50018E-001	-6.49974E-001	8	...........
	386	19.35	-6.59965E-001	-4.86870E-005	0.00000E+000	-6.60017E-001	-6.59978E-001	8	...........
	387	19.4	-6.69765E-001	-4.99224E-005	0.00000E+000	-6.70015E-001	-6.70181E-001	8	...........
	388	19.45	-6.79965E-001	-5.16253E-005	0.00000E+000	-6.80014E-001	-6.79985E-001	8	...........
	389	19.5	-6.89965E-001	-5.30944E-005	0.00000E+000	-6.90013E-001	-6.89789E-001	8	...........
	390	19.55	-6.99765E-001	-5.45301E-005	0.00000E+000	-7.00012E-001	-6.99992E-001	8	...........
	391	19.6	-7.09765E-001	-5.63833E-005	0.00000E+000	-7.10010E-001	-7.09996E-001	8	...........
	392	19.65	-7.19765E-001	-5.80360E-005	0.00000E+000	-7.20009E-001	-7.19800E-001	8	...........
	393	19.7	-7.29765E-001	-5.99392E-005	0.00000E+000	-7.30008E-001	-7.30003E-001	8	...........
	394	19.75	-7.39765E-001	-6.17923E-005	0.00000E+000	-7.40007E-001	-7.39807E-001	8	...........
	395	19.8	-7.49765E-001	-6.39626E-005	0.00000E+000	-7.50005E-001	-7.50011E-001	8	...........
	396	19.85	-7.59965E-001	-6.53149E-005	0.00000E+000	-7.60004E-001	-7.59814E-001	8	...........
	397	19.9	-7.69765E-001	-6.79360E-005	0.00000E+000	-7.70003E-001	-7.69818E-001	8	...........
	398	19.95	-7.79765E-001	-6.98893E-005	0.00000E+000	-7.80001E-001	-7.79822E-001	8	...........
	399	20	-7.89765E-001	-7.29277E-005	0.00000E+000	-7.90000E-001	-7.89825E-001	8	...........
	400	20.05	-7.99765E-001	-7.56155E-005	0.00000E+000	-7.99999E-001	-7.99629E-001	8	...........
	401	20.1	-7.89965E-001	-5.65836E-005	0.00000E+000	-7.90000E-001	-7.90026E-001	8	...........
	402	20.15	-7.79765E-001	-4.46135E-005	0.00000E+000	-7.80001E-001	-7.79822E-001	8	...........
	403	20.2	-7.69965E-001	-3.62328E-005	0.00000E+000	-7.70003E-001	-7.70018E-001	8	...........
	404	20.25	-7.59765E-001	-2.91135E-005	0.00000E+000	-7.60004E-001	-7.59814E-001	7	...........
	405	20.3	-7.49565E-001	-2.37205E-005	0.00000E+000	-7.50005E-001	-7.49811E-001	7	...........
	406	20.35	-7.39765E-001	-1.90473E-005	0.00000E+000	-7.40007E-001	-7.39807E-001	7	...........
	407	20.4	-7.29765E-001	-1.52677E-005	0.00000E+000	-7.30008E-001	-7.29803E-001	7	...........
	408	20.45	-7.19765E-001	-1.19240E-005	0.00000E+000	-7.20009E-001	-7.20200E-001	7	...........
	409	20.5	-7.09965E-001	-9.23332E-006	0.00000E+000	-7.10010E-001	-7.09996E-001	7	...........
	410	20.55	-6.99765E-001	-6.60111E-006	0.00000E+000	-7.00012E-001	-6.99992E-001	7	...........
	411	20.6	-6.89765E-001	-4.49333E-006	0.00000E+000	-6.90013E-001	-6.89989E-001	7	...........
	412	20.65	-6.79765E-001	-2.74131E-006	0.00000E+000	-6.80014E-001	-6.79985E-001	7	...........
	413	20.7	-6.69965E-001	-1.07446E-006	0.00000E+000	-6.70015E-001	-6.69981E-001	7	...........
	414	20.75	-6.59965E-001	2.85066E-007	0.00000E+000	-6.60017E-001	-6.59978E-001	7	...........
	415	20.8	-6.49965E-001	1.41411E-006	0.00000E+000	-6.50018E-001	-6.49974E-001	7	...........
[...]
	741	37.1	-5.89765E-001	6.86726E-006	0.00000E+000	-5.89975E-001	-5.90152E-001	7	...........
	742	37.15	-5.79965E-001	7.26811E-006	0.00000E+000	-5.79977E-001	-5.79948E-001	7	...........
	743	37.2	-5.69965E-001	7.89109E-006	0.00000E+000	-5.69978E-001	-5.69944E-001	7	...........
	744	37.25	-5.59965E-001	8.35206E-006	0.00000E+000	-5.59979E-001	-5.59741E-001	7	...........
	745	37.3	-5.50165E-001	8.62263E-006	0.00000E+000	-5.49981E-001	-5.49937E-001	7	...........
	746	37.35	-5.40165E-001	9.09362E-006	0.00000E+000	-5.39982E-001	-5.39933E-001	7	...........
	747	37.4	-5.29965E-001	9.42599E-006	0.00000E+000	-5.29983E-001	-5.29930E-001	7	...........
	748	37.45	-5.19765E-001	9.95878E-006	0.00000E+000	-5.19984E-001	-5.19926E-001	7	...........
	749	37.5	-5.09965E-001	9.89698E-006	0.00000E+000	-5.09986E-001	-5.09922E-001	7	...........
	750	37.55	-4.99965E-001	1.02861E-005	0.00000E+000	-4.99987E-001	-5.00118E-001	7	...........
	751	37.6	-4.89965E-001	1.03897E-005	0.00000E+000	-4.89988E-001	-4.90115E-001	7	...........
	752	37.65	-4.80165E-001	1.07371E-005	0.00000E+000	-4.79989E-001	-4.79911E-001	7	...........
	753	37.7	-4.69965E-001	1.08223E-005	0.00000E+000	-4.69991E-001	-4.70107E-001	7	...........
	754	37.75	-4.60165E-001	1.11279E-005	0.00000E+000	-4.59992E-001	-4.60104E-001	7	...........
	755	37.8	-4.49965E-001	1.11680E-005	0.00000E+000	-4.49993E-001	-4.50100E-001	7	...........
	756	37.85	-4.39965E-001	1.12532E-005	0.00000E+000	-4.39994E-001	-4.40096E-001	7	...........
	757	37.9	-4.29965E-001	1.12949E-005	0.00000E+000	-4.29996E-001	-4.30293E-001	7	...........
	758	37.95	-4.20165E-001	1.16156E-005	0.00000E+000	-4.19997E-001	-4.20089E-001	7	...........
	759	38	-4.10165E-001	1.15839E-005	0.00000E+000	-4.09998E-001	-4.10085E-001	7	...........
	760	38.05	-4.00165E-001	1.19029E-005	0.00000E+000	-3.99999E-001	-4.00081E-001	7	...........
	761	38.1	-3.89965E-001	1.19045E-005	0.00000E+000	-3.90001E-001	-3.90078E-001	7	...........
	762	38.15	-3.79965E-001	1.20615E-005	0.00000E+000	-3.80002E-001	-3.80274E-001	7	...........
	763	38.2	-3.70165E-001	1.21116E-005	0.00000E+000	-3.70003E-001	-3.70070E-001	7	...........
	764	38.25	-3.60165E-001	1.22503E-005	0.00000E+000	-3.60005E-001	-3.60267E-001	7	...........
	765	38.3	-3.50165E-001	1.23104E-005	0.00000E+000	-3.50006E-001	-3.50263E-001	7	...........
	766	38.35	-3.40165E-001	1.22002E-005	0.00000E+000	-3.40007E-001	-3.40059E-001	7	...........
	767	38.4	-3.30165E-001	1.23555E-005	0.00000E+000	-3.30008E-001	-3.30256E-001	7	...........
	768	38.45	-3.20165E-001	1.23371E-005	0.00000E+000	-3.20010E-001	-3.20252E-001	7	...........
	769	38.5	-3.10165E-001	1.24590E-005	0.00000E+000	-3.10011E-001	-3.10248E-001	7	...........
	770	38.55	-3.00165E-001	1.25476E-005	0.00000E+000	-3.00012E-001	-3.00245E-001	7	...........
	771	38.6	-2.90365E-001	1.24407E-005	0.00000E+000	-2.90013E-001	-2.90241E-001	7	...........
	772	38.65	-2.79965E-001	1.25192E-005	0.00000E+000	-2.80015E-001	-2.80237E-001	7	...........
	773	38.7	-2.70165E-001	1.25208E-005	0.00000E+000	-2.70016E-001	-2.70434E-001	7	...........
	774	38.75	-2.60365E-001	1.27547E-005	0.00000E+000	-2.60017E-001	-2.60030E-001	7	...........
	775	38.8	-2.50165E-001	1.27062E-005	0.00000E+000	-2.50018E-001	-2.50226E-001	7	...........
	776	38.85	-2.40165E-001	1.27597E-005	0.00000E+000	-2.40020E-001	-2.40222E-001	7	...........
	777	38.9	-2.30365E-001	1.26578E-005	0.00000E+000	-2.30021E-001	-2.30219E-001	7	...........
	778	38.95	-2.20165E-001	1.27647E-005	0.00000E+000	-2.20022E-001	-2.20415E-001	7	...........
	779	39	-2.10365E-001	1.28398E-005	0.00000E+000	-2.09973E-001	-2.10211E-001	7	...........
	780	39.05	-2.00165E-001	1.27563E-005	0.00000E+000	-1.99975E-001	-2.00408E-001	7	...........
	781	39.1	-1.89965E-001	1.28432E-005	0.00000E+000	-1.89976E-001	-1.90204E-001	7	...........
	782	39.15	-1.80165E-001	1.28966E-005	0.00000E+000	-1.79977E-001	-1.80400E-001	7	...........
	783	39.2	-1.70165E-001	1.28499E-005	0.00000E+000	-1.69979E-001	-1.70397E-001	7	...........
	784	39.25	-1.60365E-001	1.28816E-005	0.00000E+000	-1.59980E-001	-1.60393E-001	7	...........
	785	39.3	-1.50365E-001	1.27547E-005	0.00000E+000	-1.49981E-001	-1.50389E-001	7	...........
	786	39.35	-1.40365E-001	1.29417E-005	0.00000E+000	-1.39982E-001	-1.40385E-001	7	...........
	787	39.4	-1.30365E-001	1.29935E-005	0.00000E+000	-1.29984E-001	-1.30382E-001	7	...........
	788	39.45	-1.20165E-001	1.28966E-005	0.00000E+000	-1.19985E-001	-1.20378E-001	7	...........
	789	39.5	-1.10165E-001	1.29551E-005	0.00000E+000	-1.09986E-001	-1.10574E-001	7	...........
	790	39.55	-1.00365E-001	1.31522E-005	0.00000E+000	-9.99874E-002	-1.00571E-001	7	...........
	791	39.6	-9.03651E-002	1.32374E-005	0.00000E+000	-8.99886E-002	-9.05671E-002	7	...........
	792	39.65	-8.01651E-002	1.34411E-005	0.00000E+000	-7.99899E-002	-8.03633E-002	7	...........
	793	39.7	-7.03651E-002	1.32390E-005	0.00000E+000	-6.99912E-002	-7.03596E-002	7	...........
	794	39.75	-6.03651E-002	1.34194E-005	0.00000E+000	-5.99924E-002	-6.03559E-002	7	...........
	795	39.8	-5.01651E-002	1.34311E-005	0.00000E+000	-4.99937E-002	-5.05523E-002	7	...........
	796	39.85	-4.03651E-002	1.35948E-005	0.00000E+000	-3.99949E-002	-4.03485E-002	7	...........
	797	39.9	-3.03651E-002	1.36382E-005	0.00000E+000	-2.99962E-002	-3.01447E-002	7	...........
	798	39.95	-2.03651E-002	1.35680E-005	0.00000E+000	-1.99975E-002	-2.03411E-002	7	...........
	799	40	-1.03651E-002	1.38754E-005	0.00000E+000	-9.99874E-003	-1.03374E-002	7	...........
	800	40.05	-3.65120E-004	1.38186E-005	0.00000E+000	0.00000E+000	-7.33871E-004	7	...........
	801	40.1	9.83488E-003	1.40591E-005	0.00000E+000	9.99874E-003	9.26983E-003	7	...........
	802	40.15	1.96349E-002	1.41710E-005	0.00000E+000	1.99975E-002	1.94736E-002	7	...........
	803	40.2	2.96349E-002	1.41643E-005	0.00000E+000	2.99962E-002	2.94773E-002	7	...........
	804	40.25	3.98349E-002	1.42144E-005	0.00000E+000	3.99949E-002	3.94810E-002	7	...........
	805	40.3	4.96349E-002	1.45568E-005	0.00000E+000	4.99937E-002	4.92846E-002	7	...........
	806	40.35	5.96349E-002	1.45568E-005	0.00000E+000	5.99924E-002	5.94884E-002	7	...........
	807	40.4	6.96349E-002	1.48675E-005	0.00000E+000	6.99912E-002	6.94921E-002	7	...........
	808	40.45	7.96349E-002	1.47839E-005	0.00000E+000	7.99899E-002	7.94958E-002	7	...........
	809	40.5	8.96349E-002	1.48791E-005	0.00000E+000	8.99886E-002	8.94995E-002	7	...........
	810	40.55	9.96349E-002	1.52199E-005	0.00000E+000	9.99874E-002	9.93031E-002	7	...........
	811	40.6	1.09635E-001	1.54353E-005	0.00000E+000	1.09986E-001	1.09307E-001	7	...........
	812	40.65	1.19635E-001	1.55055E-005	0.00000E+000	1.19985E-001	1.19310E-001	7	...........
	813	40.7	1.29635E-001	1.56357E-005	0.00000E+000	1.29984E-001	1.29514E-001	7	...........
	814	40.75	1.39635E-001	1.58545E-005	0.00000E+000	1.39982E-001	1.39318E-001	7	...........
	815	40.8	1.49435E-001	1.60048E-005	0.00000E+000	1.49981E-001	1.49322E-001	7	...........
	816	40.85	1.59635E-001	1.61468E-005	0.00000E+000	1.59980E-001	1.59325E-001	7	...........
	817	40.9	1.69635E-001	1.63138E-005	0.00000E+000	1.69979E-001	1.69329E-001	7	...........
	818	40.95	1.79635E-001	1.64057E-005	0.00000E+000	1.79977E-001	1.79333E-001	7	...........
	819	41	1.89435E-001	1.69118E-005	0.00000E+000	1.90026E-001	1.89336E-001	7	...........
	820	41.05	1.99435E-001	1.69067E-005	0.00000E+000	2.00025E-001	1.99340E-001	7	...........
	821	41.1	2.09435E-001	1.71539E-005	0.00000E+000	2.10023E-001	2.09344E-001	7	...........
	822	41.15	2.19635E-001	1.73961E-005	0.00000E+000	2.20022E-001	2.19347E-001	7	...........
	823	41.2	2.29435E-001	1.75414E-005	0.00000E+000	2.30021E-001	2.29351E-001	7	...........
	824	41.25	2.39635E-001	1.79389E-005	0.00000E+000	2.40020E-001	2.39355E-001	7	...........
	825	41.3	2.49635E-001	1.80157E-005	0.00000E+000	2.50018E-001	2.49359E-001	7	...........
	826	41.35	2.59635E-001	1.83665E-005	0.00000E+000	2.60017E-001	2.59362E-001	7	...........
	827	41.4	2.69435E-001	1.84082E-005	0.00000E+000	2.70016E-001	2.69366E-001	7	...........
	828	41.45	2.79635E-001	1.87540E-005	0.00000E+000	2.80015E-001	2.79370E-001	7	...........
	829	41.5	2.89635E-001	1.90429E-005	0.00000E+000	2.90013E-001	2.89173E-001	7	...........
	830	41.55	2.99235E-001	1.92734E-005	0.00000E+000	3.00012E-001	2.99177E-001	7	...........
	831	41.6	3.09435E-001	1.95974E-005	0.00000E+000	3.10011E-001	3.09381E-001	7	...........
	832	41.65	3.19235E-001	1.98813E-005	0.00000E+000	3.20010E-001	3.19184E-001	7	...........
	833	41.7	3.29635E-001	2.02638E-005	0.00000E+000	3.30008E-001	3.29188E-001	7	...........
	834	41.75	3.39435E-001	2.05361E-005	0.00000E+000	3.40007E-001	3.39392E-001	7	...........
	835	41.8	3.49435E-001	2.09686E-005	0.00000E+000	3.50006E-001	3.49195E-001	7	...........
	836	41.85	3.59435E-001	2.10789E-005	0.00000E+000	3.60005E-001	3.59399E-001	7	...........
	837	41.9	3.69435E-001	2.14346E-005	0.00000E+000	3.70003E-001	3.69403E-001	7	...........
	838	41.95	3.79435E-001	2.18739E-005	0.00000E+000	3.80002E-001	3.79407E-001	7	...........
	839	42	3.89435E-001	2.22012E-005	0.00000E+000	3.90001E-001	3.89210E-001	7	...........
	840	42.05	3.99435E-001	2.26204E-005	0.00000E+000	3.99999E-001	3.99414E-001	7	...........
	841	42.1	4.09235E-001	2.28359E-005	0.00000E+000	4.09998E-001	4.09218E-001	7	...........
	842	42.15	4.19235E-001	2.33102E-005	0.00000E+000	4.19997E-001	4.19221E-001	7	...........
	843	42.2	4.29235E-001	2.36443E-005	0.00000E+000	4.29996E-001	4.29025E-001	7	...........
	844	42.25	4.39235E-001	2.39432E-005	0.00000E+000	4.39994E-001	4.39229E-001	7	...........
	845	42.3	4.49435E-001	2.46163E-005	0.00000E+000	4.49993E-001	4.49232E-001	7	...........
	846	42.35	4.59435E-001	2.48802E-005	0.00000E+000	4.59992E-001	4.59036E-001	7	...........
	847	42.4	4.69435E-001	2.52026E-005	0.00000E+000	4.69991E-001	4.69040E-001	7	...........
	848	42.45	4.79435E-001	2.58389E-005	0.00000E+000	4.79989E-001	4.79043E-001	7	...........
	849	42.5	4.89435E-001	2.61195E-005	0.00000E+000	4.89988E-001	4.89047E-001	7	...........
	850	42.55	4.99435E-001	2.66706E-005	0.00000E+000	4.99987E-001	4.99051E-001	7	...........
	851	42.6	5.09235E-001	2.71266E-005	0.00000E+000	5.09986E-001	5.09055E-001	7	...........
	852	42.65	5.19235E-001	2.75709E-005	0.00000E+000	5.19984E-001	5.19258E-001	7	...........
	853	42.7	5.29435E-001	2.81571E-005	0.00000E+000	5.29983E-001	5.29062E-001	7	...........
	854	42.75	5.39235E-001	2.86114E-005	0.00000E+000	5.39982E-001	5.39066E-001	7	...........
	855	42.8	5.49235E-001	2.92578E-005	0.00000E+000	5.49981E-001	5.49069E-001	7	...........
	856	42.85	5.59435E-001	2.96185E-005	0.00000E+000	5.59979E-001	5.59073E-001	7	...........
	857	42.9	5.69435E-001	3.01931E-005	0.00000E+000	5.69978E-001	5.69077E-001	7	...........
	858	42.95	5.79235E-001	3.06641E-005	0.00000E+000	5.79977E-001	5.79080E-001	7	...........
	859	43	5.89435E-001	3.11133E-005	0.00000E+000	5.89975E-001	5.89284E-001	7	...........
	860	43.05	5.99435E-001	3.17664E-005	0.00000E+000	6.00024E-001	5.99088E-001	7	...........
	861	43.1	6.09435E-001	3.21689E-005	0.00000E+000	6.10023E-001	6.09092E-001	7	...........
	862	43.15	6.19435E-001	3.28821E-005	0.00000E+000	6.20022E-001	6.19095E-001	7	...........
	863	43.2	6.29235E-001	3.34182E-005	0.00000E+000	6.30020E-001	6.29099E-001	7	...........
	864	43.25	6.39435E-001	3.39927E-005	0.00000E+000	6.40019E-001	6.39103E-001	7	...........
	865	43.3	6.49235E-001	3.47994E-005	0.00000E+000	6.50018E-001	6.48906E-001	7	...........
	866	43.35	6.59235E-001	3.50667E-005	0.00000E+000	6.60017E-001	6.59110E-001	7	...........
	867	43.4	6.69235E-001	3.57598E-005	0.00000E+000	6.70015E-001	6.68914E-001	7	...........
	868	43.45	6.79435E-001	3.68254E-005	0.00000E+000	6.80014E-001	6.79117E-001	7	...........
	869	43.5	6.89235E-001	3.74834E-005	0.00000E+000	6.90013E-001	6.88921E-001	7	...........
	870	43.55	6.99235E-001	3.82450E-005	0.00000E+000	7.00012E-001	6.99125E-001	7	...........
	871	43.6	7.09235E-001	3.90968E-005	0.00000E+000	7.10010E-001	7.09129E-001	7	...........
	872	43.65	7.19235E-001	3.97449E-005	0.00000E+000	7.20009E-001	7.18932E-001	7	...........
	873	43.7	7.29235E-001	4.05282E-005	0.00000E+000	7.30008E-001	7.28736E-001	7	...........
	874	43.75	7.39235E-001	4.13549E-005	0.00000E+000	7.40007E-001	7.39140E-001	7	...........
	875	43.8	7.49235E-001	4.23904E-005	0.00000E+000	7.50005E-001	7.48943E-001	7	...........
	876	43.85	7.59035E-001	4.33942E-005	0.00000E+000	7.60004E-001	7.59147E-001	7	...........
	877	43.9	7.69235E-001	4.44965E-005	0.00000E+000	7.70003E-001	7.69151E-001	7	...........
	878	43.95	7.79235E-001	4.57047E-005	0.00000E+000	7.80001E-001	7.78754E-001	8	...........
	879	44	7.89235E-001	4.67898E-005	0.00000E+000	7.90000E-001	7.88958E-001	8	...........
	880	44.05	7.99235E-001	4.77748E-005	0.00000E+000	7.99999E-001	7.98762E-001	8	...........
CURVE4	TABLE
	Pt	T	Vf	Im	Vu	Sig	Ach	IERange	Over
	#	s	V vs. Ref.	A	V	V	V	#	bits
	881	44.1	7.89235E-001	3.55376E-005	0.00000E+000	7.90000E-001	7.88958E-001	8	...........
	882	44.15	7.79035E-001	2.88152E-005	0.00000E+000	7.80001E-001	7.78754E-001	7	...........
	883	44.2	7.69235E-001	2.39583E-005	0.00000E+000	7.70003E-001	7.68951E-001	7	...........
	884	44.25	7.59035E-001	2.00166E-005	0.00000E+000	7.60004E-001	7.58947E-001	7	...........
	885	44.3	7.49035E-001	1.69335E-005	0.00000E+000	7.50005E-001	7.48943E-001	7	...........
	886	44.35	7.39235E-001	1.43547E-005	0.00000E+000	7.40007E-001	7.38940E-001	7	...........
	887	44.4	7.29235E-001	1.23104E-005	0.00000E+000	7.30008E-001	7.28736E-001	7	...........
	888	44.45	7.19235E-001	1.04582E-005	0.00000E+000	7.20009E-001	7.19132E-001	7	...........
	889	44.5	7.09235E-001	8.65269E-006	0.00000E+000	7.10010E-001	7.08928E-001	7	...........
	890	44.55	6.99235E-001	7.32490E-006	0.00000E+000	7.00012E-001	6.99125E-001	7	...........
	891	44.6	6.89235E-001	6.01046E-006	0.00000E+000	6.90013E-001	6.89121E-001	7	...........
	892	44.65	6.79235E-001	4.67264E-006	0.00000E+000	6.80014E-001	6.79117E-001	7	...........
	893	44.7	6.69235E-001	3.74736E-006	0.00000E+000	6.70015E-001	6.68914E-001	7	...........
	894	44.75	6.59235E-001	2.97072E-006	0.00000E+000	6.60017E-001	6.59310E-001	7	...........
	895	44.8	6.49235E-001	1.82665E-006	0.00000E+000	6.50018E-001	6.49106E-001	7	...........
	896	44.85	6.39235E-001	1.10012E-006	0.00000E+000	6.40019E-001	6.38903E-001	7	...........
	897	44.9	6.29235E-001	4.80478E-007	0.00000E+000	6.30020E-001	6.29299E-001	7	...........
	898	44.95	6.19235E-001	-1.19118E-007	0.00000E+000	6.20022E-001	6.19095E-001	7	...........
	899	45	6.09435E-001	-8.25606E-007	0.00000E+000	6.10023E-001	6.09092E-001	7	...........
	900	45.05	5.99435E-001	-1.40516E-006	0.00000E+000	6.00024E-001	5.99088E-001	7	...........
	901	45.1	5.89235E-001	-1.91791E-006	0.00000E+000	5.89975E-001	5.89084E-001	7	...........
	902	45.15	5.79435E-001	-2.60936E-006	0.00000E+000	5.79977E-001	5.79080E-001	7	...........
	903	45.2	5.69435E-001	-2.95008E-006	0.00000E+000	5.69978E-001	5.69077E-001	7	...........
	904	45.25	5.59035E-001	-3.37598E-006	0.00000E+000	5.59979E-001	5.59073E-001	7	...........
	905	45.3	5.49435E-001	-4.08247E-006	0.00000E+000	5.49981E-001	5.49269E-001	7	...........
	906	45.35	5.39235E-001	-4.35471E-006	0.00000E+000	5.39982E-001	5.39066E-001	7	...........
	907	45.4	5.29435E-001	-4.75221E-006	0.00000E+000	5.29983E-001	5.29062E-001	7	...........
	908	45.45	5.19435E-001	-5.15306E-006	0.00000E+000	5.19984E-001	5.19258E-001	7	...........
	909	45.5	5.09435E-001	-5.43866E-006	0.00000E+000	5.09986E-001	5.09255E-001	7	...........
	910	45.55	4.99235E-001	-5.80610E-006	0.00000E+000	4.99987E-001	4.99251E-001	7	...........
	911	45.6	4.89235E-001	-6.02155E-006	0.00000E+000	4.89988E-001	4.89247E-001	7	...........
	912	45.65	4.79435E-001	-6.54265E-006	0.00000E+000	4.79989E-001	4.78843E-001	7	...........
	913	45.7	4.69435E-001	-6.67626E-006	0.00000E+000	4.69991E-001	4.69240E-001	7	...........
	914	45.75	4.59235E-001	-7.02700E-006	0.00000E+000	4.59992E-001	4.59036E-001	7	...........
	915	45.8	4.49435E-001	-7.11385E-006	0.00000E+000	4.49993E-001	4.49433E-001	7	...........
	916	45.85	4.39235E-001	-7.44622E-006	0.00000E+000	4.39994E-001	4.39229E-001	7	...........
	917	45.9	4.29235E-001	-7.70343E-006	0.00000E+000	4.29996E-001	4.29225E-001	7	...........
	918	45.95	4.19435E-001	-7.89550E-006	0.00000E+000	4.19997E-001	4.19221E-001	7	...........
	919	46	4.09235E-001	-7.92723E-006	0.00000E+000	4.09998E-001	4.09218E-001	7	...........
	920	46.05	3.99435E-001	-8.17275E-006	0.00000E+000	3.99999E-001	3.99214E-001	7	...........
	921	46.1	3.89635E-001	-8.45501E-006	0.00000E+000	3.90001E-001	3.89210E-001	7	...........
	922	46.15	3.79435E-001	-8.50679E-006	0.00000E+000	3.80002E-001	3.79407E-001	7	...........
	923	46.2	3.69435E-001	-8.66713E-006	0.00000E+000	3.70003E-001	3.69203E-001	7	...........
	924	46.25	3.59435E-001	-8.85920E-006	0.00000E+000	3.60005E-001	3.59199E-001	7	...........
	925	46.3	3.49435E-001	-9.06964E-006	0.00000E+000	3.50006E-001	3.49396E-001	7	...........
	926	46.35	3.39435E-001	-9.20158E-006	0.00000E+000	3.40007E-001	3.39392E-001	7	...........
	927	46.4	3.29635E-001	-9.40535E-006	0.00000E+000	3.30008E-001	3.29388E-001	7	...........
	928	46.45	3.19435E-001	-9.54731E-006	0.00000E+000	3.20010E-001	3.19184E-001	7	...........
	929	46.5	3.09635E-001	-9.65587E-006	0.00000E+000	3.10011E-001	3.09381E-001	7	...........
	930	46.55	2.99435E-001	-9.70264E-006	0.00000E+000	3.00012E-001	2.99377E-001	7	...........
	931	46.6	2.89435E-001	-9.84293E-006	0.00000E+000	2.90013E-001	2.89173E-001	7	...........
	932	46.65	2.79235E-001	-9.87634E-006	0.00000E+000	2.80015E-001	2.79370E-001	7	...........
	933	46.7	2.69635E-001	-1.03139E-005	0.00000E+000	2.70016E-001	2.69366E-001	7	...........
	934	46.75	2.59635E-001	-1.03457E-005	0.00000E+000	2.60017E-001	2.59162E-001	7	...........
	935	46.8	2.49435E-001	-1.04175E-005	0.00000E+000	2.50018E-001	2.49359E-001	7	...........
	936	46.85	2.39435E-001	-1.04743E-005	0.00000E+000	2.40020E-001	2.39355E-001	7	...........
	937	46.9	2.29435E-001	-1.05928E-005	0.00000E+000	2.30021E-001	2.29351E-001	7	...........
	938	46.95	2.19635E-001	-1.07766E-005	0.00000E+000	2.20022E-001	2.19548E-001	7	...........
	939	47	2.09435E-001	-1.07465E-005	0.00000E+000	2.10023E-001	2.09344E-001	7	...........
	940	47.05	1.99435E-001	-1.10438E-005	0.00000E+000	2.00025E-001	1.99540E-001	7	...........
	941	47.1	1.89635E-001	-1.10805E-005	0.00000E+000	1.90026E-001	1.89336E-001	7	...........
	942	47.15	1.79435E-001	-1.13411E-005	0.00000E+000	1.79977E-001	1.79333E-001	7	...........
	943	47.2	1.69635E-001	-1.12225E-005	0.00000E+000	1.69979E-001	1.69329E-001	7	...........
	944	47.25	1.59635E-001	-1.15749E-005	0.00000E+000	1.59980E-001	1.59525E-001	7	...........
	945	47.3	1.49635E-001	-1.14363E-005	0.00000E+000	1.49981E-001	1.49322E-001	7	...........
	946	47.35	1.39635E-001	-1.17369E-005	0.00000E+000	1.39982E-001	1.39318E-001	7	...........
	947	47.4	1.29635E-001	-1.17486E-005	0.00000E+000	1.29984E-001	1.29314E-001	7	...........
	948	47.45	1.19635E-001	-1.20242E-005	0.00000E+000	1.19985E-001	1.19310E-001	7	...........
	949	47.5	1.09635E-001	-1.20275E-005	0.00000E+000	1.09986E-001	1.09307E-001	7	...........
	950	47.55	9.96349E-002	-1.21277E-005	0.00000E+000	9.99874E-002	9.95032E-002	7	...........
	951	47.6	8.96349E-002	-1.22998E-005	0.00000E+000	8.99886E-002	8.92994E-002	7	...........
	952	47.65	7.96349E-002	-1.24985E-005	0.00000E+000	7.99899E-002	7.92957E-002	7	...........
	953	47.7	6.96349E-002	-1.25269E-005	0.00000E+000	6.99912E-002	6.94921E-002	7	...........
	954	47.75	5.96349E-002	-1.26488E-005	0.00000E+000	5.99924E-002	5.92883E-002	7	...........
	955	47.8	4.96349E-002	-1.28142E-005	0.00000E+000	4.99937E-002	4.94847E-002	7	...........
	956	47.85	3.98349E-002	-1.28476E-005	0.00000E+000	3.99949E-002	3.94810E-002	7	...........
	957	47.9	2.96349E-002	-1.30397E-005	0.00000E+000	2.99962E-002	2.96774E-002	7	...........
	958	47.95	1.96349E-002	-1.30263E-005	0.00000E+000	1.99975E-002	1.96737E-002	7	...........
	959	48	9.63488E-003	-1.30397E-005	0.00000E+000	9.99874E-003	9.46990E-003	7	...........
	960	48.05	-3.65120E-004	-1.34689E-005	0.00000E+000	0.00000E+000	-5.33797E-004	7	...........