File: Data/CV_Steel_Disk_No_Material_2/CV_#2.DTA
EXPLAIN
TAG	CV
TITLE	LABEL	Cyclic Voltammetry	Test Identifier
DATE	LABEL	12-7-2017	Date
TIME	LABEL	17:17:30	Time
NOTES	NOTES	1	Notes...

PSTAT	PSTAT	IFC5000-01520	Potentiostat
VINIT	POTEN	0.00000E+000	F	Initial E (V)
VLIMIT1	POTEN	-8.00000E-001	F	Scan Limit 1 (V)
VLIMIT2	POTEN	8.00000E-001	F	Scan Limit 2 (V)
VFINAL	POTEN	0.00000E+000	F	Final E (V)
SCANRATE	QUANT	4.99999E+001	A Real Number
STEPSIZE	QUANT	1.00000E+001	Step Size (mV)
CYCLES	IQUANT	3	Cycles (#)
IMODE	SELECTOR	0	I/E Range Mode
IRANGE	QUANT	2.50000E+002	Max Current (mA)
AREA	QUANT	3.84800E-001	A Real Number
EQDELAY	QUANT	1.00000E+000	Equil. Time (s)
IRCOMP	SELECTOR	0	IRComp
PFCOR	QUANT	2.50000E+002	PF Corr. (ohm)
SAMPLINGMODE	SELECTOR	0	Sampling Mode
EOC	QUANT	0	Open Circuit (V)
SEQUENCER	TOGGLE	TRUE	Run as Sequence
PSTATMODEL	IQUANT	53	Pstat Model
PSTATSECTION	LABEL	IFC5000-01520	Pstat Section
PSTATSERIALNO	LABEL	01520	Pstat Serial Number
CTRLMODE	IQUANT	1	Control Mode
ELECTROMETER	IQUANT	0	RE=0 or CS=1
IESTAB	IQUANT	2	I/E Stability
CASPEED	IQUANT	4	Control Amp Speed
CONVENTION	IQUANT	1	Current Convention
ICHRANGE	IQUANT	2	Ich Range
ICHRANGEMODE	TOGGLE	F	Ich Auto Range
ICHOFFSETENABLE	TOGGLE	F	Ich Offset Enable
ICHOFFSET	QUANT	0	Ich Offset (V)
ICHFILTER	IQUANT	4	Ich Filter
VCHRANGE	IQUANT	2	Vch Range
VCHRANGEMODE	TOGGLE	F	Vch Auto Range
VCHOFFSETENABLE	TOGGLE	F	Vch Offset Enable
VCHOFFSET	QUANT	0	Vch Offset (V)
VCHFILTER	IQUANT	4	Vch Filter
IERANGELOWERLIMIT	IQUANT	7	I/E Range Lower Limit
IERANGEMODE	TOGGLE	T	I/E AutoRange
IERANGE	IQUANT	11	I/E Range
ACHSELECT	IQUANT	1	Ach Select
ACHRANGE	IQUANT	2	Ach Range
ACHOFFSETENABLE	TOGGLE	F	Ach Offset Enable
ACHOFFSET	QUANT	0	Ach Offset (V)
ACHFILTER	IQUANT	1	Ach Filter
CABLEID	IQUANT	14	Cable ID
DCCALDATE	LABEL	5-7-2017	DC Calibration Date
ACCALDATE	LABEL	12/3/2015	AC Calibration Date
FRAMEWORKVERSION	QUANT	7.01	Framework Version
INSTRUMENTVERSION	LABEL	4.00	Instrument Version
CURVE1	TABLE
	Pt	T	Vf	Im	Vu	Sig	Ach	IERange	Over
	#	s	V vs. Ref.	A	V	V	V	#	bits
	0	0.2	-2.06485E-004	-2.80533E-005	0.00000E+000	0.00000E+000	-3.33723E-004	11	...........
	1	0.4	-1.04067E-002	-4.47849E-006	0.00000E+000	-9.99874E-003	-1.05375E-002	10	...........
	2	0.6	-2.02069E-002	-3.44803E-006	0.00000E+000	-1.99975E-002	-2.03411E-002	9	...........
	3	0.8	-3.04072E-002	-3.60083E-006	0.00000E+000	-2.99962E-002	-3.03448E-002	8	...........
	4	1	-4.04074E-002	-3.88606E-006	0.00000E+000	-3.99949E-002	-4.03485E-002	7	...........
	5	1.2	-5.04076E-002	-4.12323E-006	0.00000E+000	-4.99937E-002	-5.03522E-002	7	...........
	6	1.4	-6.04079E-002	-4.38879E-006	0.00000E+000	-5.99924E-002	-6.01558E-002	7	...........
	7	1.6	-7.04081E-002	-4.64267E-006	0.00000E+000	-6.99912E-002	-7.03596E-002	7	...........
	8	1.8	-8.06083E-002	-4.88819E-006	0.00000E+000	-7.99899E-002	-8.03633E-002	7	...........
	9	2	-9.04085E-002	-5.12035E-006	0.00000E+000	-8.99886E-002	-9.03670E-002	7	...........
	10	2.2	-1.00609E-001	-5.34248E-006	0.00000E+000	-9.99874E-002	-1.00371E-001	7	...........
	11	2.4	-1.10409E-001	-5.55627E-006	0.00000E+000	-1.09986E-001	-1.10374E-001	7	...........
	12	2.6	-1.20409E-001	-5.76338E-006	0.00000E+000	-1.19985E-001	-1.20378E-001	7	...........
	13	2.8	-1.30409E-001	-5.95879E-006	0.00000E+000	-1.29984E-001	-1.30382E-001	7	...........
	14	3	-1.40410E-001	-6.14753E-006	0.00000E+000	-1.39982E-001	-1.40385E-001	7	...........
	15	3.2	-1.50210E-001	-6.32958E-006	0.00000E+000	-1.49981E-001	-1.50389E-001	7	...........
	16	3.4	-1.60410E-001	-6.50328E-006	0.00000E+000	-1.59980E-001	-1.60193E-001	7	...........
	17	3.6	-1.70410E-001	-6.67532E-006	0.00000E+000	-1.69979E-001	-1.70197E-001	7	...........
	18	3.8	-1.80411E-001	-6.83900E-006	0.00000E+000	-1.79977E-001	-1.80200E-001	7	...........
	19	4	-1.90411E-001	-7.00101E-006	0.00000E+000	-1.89976E-001	-1.90204E-001	7	...........
	20	4.2	-2.00211E-001	-7.16135E-006	0.00000E+000	-1.99975E-001	-2.00208E-001	7	...........
	21	4.4	-2.10411E-001	-7.32336E-006	0.00000E+000	-2.10023E-001	-2.10411E-001	7	...........
	22	4.6	-2.20411E-001	-7.48036E-006	0.00000E+000	-2.20022E-001	-2.20215E-001	7	...........
	23	4.8	-2.30412E-001	-7.63903E-006	0.00000E+000	-2.30021E-001	-2.30219E-001	7	...........
	24	5	-2.40612E-001	-7.79770E-006	0.00000E+000	-2.40020E-001	-2.40222E-001	7	...........
	25	5.2	-2.50212E-001	-7.96305E-006	0.00000E+000	-2.50018E-001	-2.50226E-001	7	...........
	26	5.4	-2.60212E-001	-8.12840E-006	0.00000E+000	-2.60017E-001	-2.60230E-001	7	...........
	27	5.6	-2.70413E-001	-8.29876E-006	0.00000E+000	-2.70016E-001	-2.70233E-001	7	...........
	28	5.8	-2.80213E-001	-8.47915E-006	0.00000E+000	-2.80015E-001	-2.80237E-001	7	...........
	29	6	-2.90213E-001	-8.66120E-006	0.00000E+000	-2.90013E-001	-2.90241E-001	7	...........
	30	6.2	-3.00213E-001	-8.85327E-006	0.00000E+000	-3.00012E-001	-3.00245E-001	7	...........
	31	6.4	-3.10414E-001	-9.05370E-006	0.00000E+000	-3.10011E-001	-3.10248E-001	7	...........
	32	6.6	-3.20214E-001	-9.26081E-006	0.00000E+000	-3.20010E-001	-3.20252E-001	7	...........
	33	6.8	-3.30214E-001	-9.47793E-006	0.00000E+000	-3.30008E-001	-3.30256E-001	7	...........
	34	7	-3.40414E-001	-9.70341E-006	0.00000E+000	-3.40007E-001	-3.40259E-001	7	...........
	35	7.2	-3.50214E-001	-9.93891E-006	0.00000E+000	-3.50006E-001	-3.50063E-001	7	...........
	36	7.4	-3.60215E-001	-1.01894E-005	0.00000E+000	-3.60005E-001	-3.60267E-001	7	...........
	37	7.6	-3.70215E-001	-1.04450E-005	0.00000E+000	-3.70003E-001	-3.70070E-001	7	...........
	38	7.8	-3.80215E-001	-1.07122E-005	0.00000E+000	-3.80002E-001	-3.80074E-001	7	...........
	39	8	-3.90215E-001	-1.09928E-005	0.00000E+000	-3.90001E-001	-3.90078E-001	7	...........
	40	8.2	-4.00016E-001	-1.12851E-005	0.00000E+000	-3.99999E-001	-3.99881E-001	7	...........
	41	8.4	-4.10216E-001	-1.15908E-005	0.00000E+000	-4.09998E-001	-4.10285E-001	7	...........
	42	8.6	-4.20216E-001	-1.19081E-005	0.00000E+000	-4.19997E-001	-4.20089E-001	7	...........
	43	8.8	-4.30016E-001	-1.22405E-005	0.00000E+000	-4.29996E-001	-4.30093E-001	7	...........
	44	9	-4.40016E-001	-1.25829E-005	0.00000E+000	-4.39994E-001	-4.40096E-001	7	...........
	45	9.2	-4.50217E-001	-1.29403E-005	0.00000E+000	-4.49993E-001	-4.50100E-001	7	...........
	46	9.4	-4.60017E-001	-1.33111E-005	0.00000E+000	-4.59992E-001	-4.60104E-001	7	...........
	47	9.6	-4.70217E-001	-1.36952E-005	0.00000E+000	-4.69991E-001	-4.70107E-001	7	...........
	48	9.8	-4.80017E-001	-1.40927E-005	0.00000E+000	-4.79989E-001	-4.80111E-001	7	...........
	49	10	-4.90218E-001	-1.45053E-005	0.00000E+000	-4.89988E-001	-4.90115E-001	7	...........
	50	10.2	-5.00218E-001	-1.49329E-005	0.00000E+000	-4.99987E-001	-4.99918E-001	7	...........
	51	10.4	-5.10018E-001	-1.53771E-005	0.00000E+000	-5.09986E-001	-5.09922E-001	7	...........
	52	10.6	-5.20018E-001	-1.58314E-005	0.00000E+000	-5.19984E-001	-5.20126E-001	7	...........
	53	10.8	-5.30019E-001	-1.63058E-005	0.00000E+000	-5.29983E-001	-5.30130E-001	7	...........
	54	11	-5.40019E-001	-1.67985E-005	0.00000E+000	-5.39982E-001	-5.40133E-001	7	...........
	55	11.2	-5.50019E-001	-1.73029E-005	0.00000E+000	-5.49981E-001	-5.50137E-001	7	...........
	56	11.4	-5.60019E-001	-1.78307E-005	0.00000E+000	-5.59979E-001	-5.59941E-001	7	...........
	57	11.6	-5.70019E-001	-1.83735E-005	0.00000E+000	-5.69978E-001	-5.69944E-001	7	...........
	58	11.8	-5.80020E-001	-1.89430E-005	0.00000E+000	-5.79977E-001	-5.80148E-001	7	...........
	59	12	-5.90220E-001	-1.95326E-005	0.00000E+000	-5.89975E-001	-5.89952E-001	7	...........
	60	12.2	-6.00020E-001	-2.01439E-005	0.00000E+000	-5.99974E-001	-5.99955E-001	7	...........
	61	12.4	-6.10220E-001	-2.07936E-005	0.00000E+000	-6.10023E-001	-6.10159E-001	7	...........
	62	12.6	-6.19821E-001	-2.14484E-005	0.00000E+000	-6.20022E-001	-6.19963E-001	7	...........
	63	12.8	-6.30021E-001	-2.21315E-005	0.00000E+000	-6.30020E-001	-6.30167E-001	7	...........
	64	13	-6.39821E-001	-2.28463E-005	0.00000E+000	-6.40019E-001	-6.39770E-001	7	...........
	65	13.2	-6.50021E-001	-2.35896E-005	0.00000E+000	-6.50018E-001	-6.50174E-001	7	...........
	66	13.4	-6.60022E-001	-2.43612E-005	0.00000E+000	-6.60017E-001	-6.59978E-001	7	...........
	67	13.6	-6.70222E-001	-2.51679E-005	0.00000E+000	-6.70015E-001	-6.69981E-001	7	...........
	68	13.8	-6.80022E-001	-2.60047E-005	0.00000E+000	-6.80014E-001	-6.79985E-001	7	...........
	69	14	-6.89822E-001	-2.68849E-005	0.00000E+000	-6.90013E-001	-6.89989E-001	7	...........
	70	14.2	-6.99822E-001	-2.77968E-005	0.00000E+000	-7.00012E-001	-6.99992E-001	7	...........
	71	14.4	-7.10223E-001	-2.87555E-005	0.00000E+000	-7.10010E-001	-7.09796E-001	7	...........
	72	14.6	-7.20023E-001	-2.97660E-005	0.00000E+000	-7.20009E-001	-7.20000E-001	7	...........
	73	14.8	-7.30023E-001	-3.08216E-005	0.00000E+000	-7.30008E-001	-7.30003E-001	7	...........
	74	15	-7.40023E-001	-3.19423E-005	0.00000E+000	-7.40007E-001	-7.40007E-001	7	...........
	75	15.2	-7.50024E-001	-3.31248E-005	0.00000E+000	-7.50005E-001	-7.49811E-001	7	...........
	76	15.4	-7.59824E-001	-3.43792E-005	0.00000E+000	-7.60004E-001	-7.60015E-001	7	...........
	77	15.6	-7.70024E-001	-3.57103E-005	0.00000E+000	-7.70003E-001	-7.70018E-001	7	...........
	78	15.8	-7.79824E-001	-3.71250E-005	0.00000E+000	-7.80001E-001	-7.79622E-001	7	...........
	79	16	-7.90024E-001	-3.86382E-005	0.00000E+000	-7.90000E-001	-7.89625E-001	7	...........
	80	16.2	-8.00025E-001	-4.02500E-005	0.00000E+000	-7.99999E-001	-7.99829E-001	7	...........
	81	16.4	-7.89824E-001	-3.16500E-005	0.00000E+000	-7.90000E-001	-7.89825E-001	7	...........
	82	16.6	-7.79624E-001	-2.65425E-005	0.00000E+000	-7.80001E-001	-7.79822E-001	7	...........
	83	16.8	-7.69624E-001	-2.27611E-005	0.00000E+000	-7.70003E-001	-7.69818E-001	7	...........
	84	17	-7.59624E-001	-1.97397E-005	0.00000E+000	-7.60004E-001	-7.59814E-001	7	...........
	85	17.2	-7.49624E-001	-1.72461E-005	0.00000E+000	-7.50005E-001	-7.50011E-001	7	...........
	86	17.4	-7.39623E-001	-1.51383E-005	0.00000E+000	-7.40007E-001	-7.39807E-001	7	...........
	87	17.6	-7.29623E-001	-1.33211E-005	0.00000E+000	-7.30008E-001	-7.29803E-001	7	...........
	88	17.8	-7.19623E-001	-1.17461E-005	0.00000E+000	-7.20009E-001	-7.19800E-001	7	...........
	89	18	-7.09623E-001	-1.03565E-005	0.00000E+000	-7.10010E-001	-7.09796E-001	7	...........
	90	18.2	-6.99822E-001	-9.13554E-006	0.00000E+000	-7.00012E-001	-6.99792E-001	7	...........
	91	18.4	-6.89622E-001	-8.04322E-006	0.00000E+000	-6.90013E-001	-6.89789E-001	7	...........
	92	18.6	-6.79622E-001	-7.06280E-006	0.00000E+000	-6.80014E-001	-6.79985E-001	7	...........
	93	18.8	-6.69622E-001	-6.18594E-006	0.00000E+000	-6.70015E-001	-6.69981E-001	7	...........
	94	19	-6.59822E-001	-5.39092E-006	0.00000E+000	-6.60017E-001	-6.59978E-001	7	...........
	95	19.2	-6.50021E-001	-4.66605E-006	0.00000E+000	-6.50018E-001	-6.49974E-001	7	...........
	96	19.4	-6.39821E-001	-4.01132E-006	0.00000E+000	-6.40019E-001	-6.40170E-001	7	...........
	97	19.6	-6.29821E-001	-3.40838E-006	0.00000E+000	-6.30020E-001	-6.29966E-001	7	...........
	98	19.8	-6.20021E-001	-2.85721E-006	0.00000E+000	-6.20022E-001	-6.20163E-001	7	...........
	99	20	-6.09820E-001	-2.35614E-006	0.00000E+000	-6.10023E-001	-6.09959E-001	7	...........
	100	20.2	-5.99820E-001	-1.87679E-006	0.00000E+000	-5.99974E-001	-5.99955E-001	7	...........
	101	20.4	-5.89820E-001	-1.45089E-006	0.00000E+000	-5.89975E-001	-5.89952E-001	7	...........
	102	20.6	-5.79820E-001	-1.05171E-006	0.00000E+000	-5.79977E-001	-5.80148E-001	7	...........
	103	20.8	-5.69819E-001	-6.84259E-007	0.00000E+000	-5.69978E-001	-5.69944E-001	7	...........
	104	21	-5.59819E-001	-3.43535E-007	0.00000E+000	-5.59979E-001	-5.59941E-001	7	...........
	105	21.2	-5.49819E-001	-1.95139E-008	0.00000E+000	-5.49981E-001	-5.49937E-001	7	...........
	106	21.4	-5.39819E-001	2.77784E-007	0.00000E+000	-5.39982E-001	-5.39933E-001	7	...........
	107	21.6	-5.29819E-001	5.55040E-007	0.00000E+000	-5.29983E-001	-5.30130E-001	7	...........
	108	21.8	-5.19818E-001	8.15593E-007	0.00000E+000	-5.19984E-001	-5.20126E-001	7	...........
	109	22	-5.09818E-001	1.06278E-006	0.00000E+000	-5.09986E-001	-5.10322E-001	7	...........
	110	22.2	-5.00018E-001	1.29160E-006	0.00000E+000	-4.99987E-001	-5.00118E-001	7	...........
	111	22.4	-4.89818E-001	1.50873E-006	0.00000E+000	-4.89988E-001	-4.90115E-001	7	...........
	112	22.6	-4.79817E-001	1.71083E-006	0.00000E+000	-4.79989E-001	-4.80111E-001	7	...........
	113	22.8	-4.69817E-001	1.89956E-006	0.00000E+000	-4.69991E-001	-4.70107E-001	7	...........
	114	23	-4.59817E-001	2.07827E-006	0.00000E+000	-4.59992E-001	-4.60104E-001	7	...........
	115	23.2	-4.49817E-001	2.24864E-006	0.00000E+000	-4.49993E-001	-4.50100E-001	7	...........
	116	23.4	-4.40016E-001	2.40564E-006	0.00000E+000	-4.39994E-001	-4.40096E-001	7	...........
	117	23.6	-4.30016E-001	2.55262E-006	0.00000E+000	-4.29996E-001	-4.30093E-001	7	...........
	118	23.8	-4.19816E-001	2.69124E-006	0.00000E+000	-4.19997E-001	-4.20089E-001	7	...........
	119	24	-4.09816E-001	2.82152E-006	0.00000E+000	-4.09998E-001	-4.10085E-001	7	...........
	120	24.2	-4.00216E-001	2.94010E-006	0.00000E+000	-3.99999E-001	-4.00282E-001	7	...........
	121	24.4	-3.89815E-001	3.05702E-006	0.00000E+000	-3.90001E-001	-3.90278E-001	7	...........
	122	24.6	-3.79815E-001	3.16224E-006	0.00000E+000	-3.80002E-001	-3.80074E-001	7	...........
	123	24.8	-3.70015E-001	3.26079E-006	0.00000E+000	-3.70003E-001	-3.70270E-001	7	...........
	124	25	-3.60015E-001	3.35098E-006	0.00000E+000	-3.60005E-001	-3.60267E-001	7	...........
	125	25.2	-3.50014E-001	3.43783E-006	0.00000E+000	-3.50006E-001	-3.50063E-001	7	...........
	126	25.4	-3.40014E-001	3.51633E-006	0.00000E+000	-3.40007E-001	-3.40259E-001	7	...........
	127	25.6	-3.29814E-001	3.58815E-006	0.00000E+000	-3.30008E-001	-3.30056E-001	7	...........
	128	25.8	-3.20014E-001	3.65663E-006	0.00000E+000	-3.20010E-001	-3.20252E-001	7	...........
	129	26	-3.10014E-001	3.72009E-006	0.00000E+000	-3.10011E-001	-3.10248E-001	7	...........
	130	26.2	-2.99813E-001	3.77855E-006	0.00000E+000	-3.00012E-001	-3.00245E-001	7	...........
	131	26.4	-2.90013E-001	3.83367E-006	0.00000E+000	-2.90013E-001	-2.90441E-001	7	...........
	132	26.6	-2.80013E-001	3.88545E-006	0.00000E+000	-2.80015E-001	-2.80037E-001	7	...........
	133	26.8	-2.70013E-001	3.93555E-006	0.00000E+000	-2.70016E-001	-2.70233E-001	7	...........
	134	27	-2.60012E-001	3.97898E-006	0.00000E+000	-2.60017E-001	-2.60230E-001	7	...........
	135	27.2	-2.50012E-001	4.02240E-006	0.00000E+000	-2.50018E-001	-2.50026E-001	7	...........
	136	27.4	-2.40012E-001	4.06416E-006	0.00000E+000	-2.40020E-001	-2.40222E-001	7	...........
	137	27.6	-2.30012E-001	4.10257E-006	0.00000E+000	-2.30021E-001	-2.30219E-001	7	...........
	138	27.8	-2.20011E-001	4.14266E-006	0.00000E+000	-2.20022E-001	-2.20215E-001	7	...........
	139	28	-2.10011E-001	4.17773E-006	0.00000E+000	-2.10023E-001	-2.10411E-001	7	...........
	140	28.2	-2.00211E-001	4.21782E-006	0.00000E+000	-1.99975E-001	-2.00408E-001	7	...........
	141	28.4	-1.90011E-001	4.25456E-006	0.00000E+000	-1.89976E-001	-1.90204E-001	7	...........
	142	28.6	-1.80211E-001	4.28797E-006	0.00000E+000	-1.79977E-001	-1.80400E-001	7	...........
	143	28.8	-1.70010E-001	4.32638E-006	0.00000E+000	-1.69979E-001	-1.70397E-001	7	...........
	144	29	-1.60010E-001	4.35979E-006	0.00000E+000	-1.59980E-001	-1.60193E-001	7	...........
	145	29.2	-1.50010E-001	4.39987E-006	0.00000E+000	-1.49981E-001	-1.50189E-001	7	...........
	146	29.4	-1.40010E-001	4.43662E-006	0.00000E+000	-1.39982E-001	-1.40385E-001	7	...........
	147	29.6	-1.30009E-001	4.47336E-006	0.00000E+000	-1.29984E-001	-1.30382E-001	7	...........
	148	29.8	-1.20209E-001	4.51512E-006	0.00000E+000	-1.19985E-001	-1.20378E-001	7	...........
	149	30	-1.10009E-001	4.55353E-006	0.00000E+000	-1.09986E-001	-1.10574E-001	7	...........
	150	30.2	-1.00009E-001	4.59529E-006	0.00000E+000	-9.99874E-002	-1.00371E-001	7	...........
	151	30.4	-9.00085E-002	4.63871E-006	0.00000E+000	-8.99886E-002	-9.03670E-002	7	...........
	152	30.6	-8.02083E-002	4.68381E-006	0.00000E+000	-7.99899E-002	-8.03633E-002	7	...........
	153	30.8	-7.00081E-002	4.73057E-006	0.00000E+000	-6.99912E-002	-7.03596E-002	7	...........
	154	31	-6.02079E-002	4.77734E-006	0.00000E+000	-5.99924E-002	-6.03559E-002	7	...........
	155	31.2	-5.02076E-002	4.82745E-006	0.00000E+000	-4.99937E-002	-5.05523E-002	7	...........
	156	31.4	-4.00074E-002	4.87755E-006	0.00000E+000	-3.99949E-002	-4.05486E-002	7	...........
	157	31.6	-3.00072E-002	4.93100E-006	0.00000E+000	-2.99962E-002	-3.05449E-002	7	...........
	158	31.8	-2.04069E-002	4.98612E-006	0.00000E+000	-1.99975E-002	-2.05412E-002	7	...........
	159	32	-1.02067E-002	5.04123E-006	0.00000E+000	-9.99874E-003	-1.03374E-002	7	...........
	160	32.2	-2.06485E-004	5.09969E-006	0.00000E+000	0.00000E+000	-3.33723E-004	7	...........
	161	32.4	9.99375E-003	5.15982E-006	0.00000E+000	9.99874E-003	9.46990E-003	7	...........
	162	32.6	1.99940E-002	5.22162E-006	0.00000E+000	1.99975E-002	1.96737E-002	7	...........
	163	32.8	2.97942E-002	5.28508E-006	0.00000E+000	2.99962E-002	2.94773E-002	7	...........
	164	33	3.97944E-002	5.35022E-006	0.00000E+000	3.99949E-002	3.94810E-002	7	...........
	165	33.2	4.97947E-002	5.41870E-006	0.00000E+000	4.99937E-002	4.92846E-002	7	...........
	166	33.4	5.97949E-002	5.48551E-006	0.00000E+000	5.99924E-002	5.92883E-002	7	...........
	167	33.6	6.97951E-002	5.55566E-006	0.00000E+000	6.99912E-002	6.94921E-002	7	...........
	168	33.8	7.97953E-002	5.62915E-006	0.00000E+000	7.99899E-002	7.94958E-002	7	...........
	169	34	8.99956E-002	5.70431E-006	0.00000E+000	8.99886E-002	8.92994E-002	7	...........
	170	34.2	9.99958E-002	5.77947E-006	0.00000E+000	9.99874E-002	9.95032E-002	7	...........
	171	34.4	1.09796E-001	5.85797E-006	0.00000E+000	1.09986E-001	1.09507E-001	7	...........
	172	34.6	1.19996E-001	5.93814E-006	0.00000E+000	1.19985E-001	1.19511E-001	7	...........
	173	34.8	1.29796E-001	6.02165E-006	0.00000E+000	1.29984E-001	1.29514E-001	7	...........
	174	35	1.39797E-001	6.10683E-006	0.00000E+000	1.39982E-001	1.39518E-001	7	...........
	175	35.2	1.49797E-001	6.19368E-006	0.00000E+000	1.49981E-001	1.49122E-001	7	...........
	176	35.4	1.59397E-001	6.28220E-006	0.00000E+000	1.59980E-001	1.59325E-001	7	...........
	177	35.6	1.69797E-001	6.37406E-006	0.00000E+000	1.69979E-001	1.69329E-001	7	...........
	178	35.8	1.79598E-001	6.46760E-006	0.00000E+000	1.79977E-001	1.79333E-001	7	...........
	179	36	1.89798E-001	6.56447E-006	0.00000E+000	1.89976E-001	1.89336E-001	7	...........
	180	36.2	1.99598E-001	6.66134E-006	0.00000E+000	1.99975E-001	1.99140E-001	7	...........
	181	36.4	2.09798E-001	6.76489E-006	0.00000E+000	2.10023E-001	2.09344E-001	7	...........
	182	36.6	2.19799E-001	6.86845E-006	0.00000E+000	2.20022E-001	2.19347E-001	7	...........
	183	36.8	2.29799E-001	6.97200E-006	0.00000E+000	2.30021E-001	2.29351E-001	7	...........
	184	37	2.39599E-001	7.08056E-006	0.00000E+000	2.40020E-001	2.39355E-001	7	...........
	185	37.2	2.49599E-001	7.18746E-006	0.00000E+000	2.50018E-001	2.49359E-001	7	...........
	186	37.4	2.59599E-001	7.30103E-006	0.00000E+000	2.60017E-001	2.59362E-001	7	...........
	187	37.6	2.69600E-001	7.41795E-006	0.00000E+000	2.70016E-001	2.69166E-001	7	...........
	188	37.8	2.79800E-001	7.53486E-006	0.00000E+000	2.80015E-001	2.79170E-001	7	...........
	189	38	2.89600E-001	7.65846E-006	0.00000E+000	2.90013E-001	2.89373E-001	7	...........
	190	38.2	2.99600E-001	7.78206E-006	0.00000E+000	3.00012E-001	2.99177E-001	7	...........
	191	38.4	3.09801E-001	7.90899E-006	0.00000E+000	3.10011E-001	3.09381E-001	7	...........
	192	38.6	3.19801E-001	8.04261E-006	0.00000E+000	3.20010E-001	3.19184E-001	7	...........
	193	38.8	3.29801E-001	8.17622E-006	0.00000E+000	3.30008E-001	3.29188E-001	7	...........
	194	39	3.39601E-001	8.31652E-006	0.00000E+000	3.40007E-001	3.39392E-001	7	...........
	195	39.2	3.49601E-001	8.46016E-006	0.00000E+000	3.50006E-001	3.49195E-001	7	...........
	196	39.4	3.59602E-001	8.60714E-006	0.00000E+000	3.60005E-001	3.59399E-001	7	...........
	197	39.6	3.69802E-001	8.75913E-006	0.00000E+000	3.70003E-001	3.69203E-001	7	...........
	198	39.8	3.79802E-001	8.91279E-006	0.00000E+000	3.80002E-001	3.79207E-001	7	...........
	199	40	3.89802E-001	9.07480E-006	0.00000E+000	3.90001E-001	3.89210E-001	7	...........
	200	40.2	3.99803E-001	9.23848E-006	0.00000E+000	3.99999E-001	3.99214E-001	7	...........
	201	40.4	4.09603E-001	9.40717E-006	0.00000E+000	4.09998E-001	4.09218E-001	7	...........
	202	40.6	4.19203E-001	9.57920E-006	0.00000E+000	4.19997E-001	4.19221E-001	7	...........
	203	40.8	4.29603E-001	9.75959E-006	0.00000E+000	4.29996E-001	4.29225E-001	7	...........
	204	41	4.39604E-001	9.94164E-006	0.00000E+000	4.39994E-001	4.39029E-001	7	...........
	205	41.2	4.49604E-001	1.01270E-005	0.00000E+000	4.49993E-001	4.49232E-001	7	...........
	206	41.4	4.59604E-001	1.03158E-005	0.00000E+000	4.59992E-001	4.59236E-001	7	...........
	207	41.6	4.69404E-001	1.05129E-005	0.00000E+000	4.69991E-001	4.69040E-001	7	...........
	208	41.8	4.79404E-001	1.07099E-005	0.00000E+000	4.79989E-001	4.79043E-001	7	...........
	209	42	4.89405E-001	1.09120E-005	0.00000E+000	4.89988E-001	4.89247E-001	7	...........
	210	42.2	4.99405E-001	1.11191E-005	0.00000E+000	4.99987E-001	4.99251E-001	7	...........
	211	42.4	5.09605E-001	1.13279E-005	0.00000E+000	5.09986E-001	5.09055E-001	7	...........
	212	42.6	5.19405E-001	1.15450E-005	0.00000E+000	5.19984E-001	5.19058E-001	7	...........
	213	42.8	5.29406E-001	1.17638E-005	0.00000E+000	5.29983E-001	5.29262E-001	7	...........
	214	43	5.39606E-001	1.19843E-005	0.00000E+000	5.39982E-001	5.39066E-001	7	...........
	215	43.2	5.49606E-001	1.22115E-005	0.00000E+000	5.49981E-001	5.49269E-001	7	...........
	216	43.4	5.59406E-001	1.24436E-005	0.00000E+000	5.59979E-001	5.59273E-001	7	...........
	217	43.6	5.69406E-001	1.26791E-005	0.00000E+000	5.69978E-001	5.69077E-001	7	...........
	218	43.8	5.79407E-001	1.29213E-005	0.00000E+000	5.79977E-001	5.79080E-001	7	...........
	219	44	5.89407E-001	1.31635E-005	0.00000E+000	5.89975E-001	5.89084E-001	7	...........
	220	44.2	5.99607E-001	1.34190E-005	0.00000E+000	5.99974E-001	5.98888E-001	7	...........
	221	44.4	6.09607E-001	1.36879E-005	0.00000E+000	6.10023E-001	6.08891E-001	7	...........
	222	44.6	6.19408E-001	1.39502E-005	0.00000E+000	6.20022E-001	6.19095E-001	7	...........
	223	44.8	6.29408E-001	1.42241E-005	0.00000E+000	6.30020E-001	6.29099E-001	7	...........
	224	45	6.39608E-001	1.45047E-005	0.00000E+000	6.40019E-001	6.39303E-001	7	...........
	225	45.2	6.49408E-001	1.48003E-005	0.00000E+000	6.50018E-001	6.49306E-001	7	...........
	226	45.4	6.59409E-001	1.51009E-005	0.00000E+000	6.60017E-001	6.59110E-001	7	...........
	227	45.6	6.69409E-001	1.54133E-005	0.00000E+000	6.70015E-001	6.69114E-001	7	...........
	228	45.8	6.79209E-001	1.57406E-005	0.00000E+000	6.80014E-001	6.78917E-001	7	...........
	229	46	6.89609E-001	1.60763E-005	0.00000E+000	6.90013E-001	6.89121E-001	7	...........
	230	46.2	6.99609E-001	1.64304E-005	0.00000E+000	7.00012E-001	6.98725E-001	7	...........
	231	46.4	7.09410E-001	1.67945E-005	0.00000E+000	7.10010E-001	7.09129E-001	7	...........
	232	46.6	7.19610E-001	1.71737E-005	0.00000E+000	7.20009E-001	7.18932E-001	7	...........
	233	46.8	7.29210E-001	1.75712E-005	0.00000E+000	7.30008E-001	7.29136E-001	7	...........
	234	47	7.39410E-001	1.79854E-005	0.00000E+000	7.40007E-001	7.38940E-001	7	...........
	235	47.2	7.49211E-001	1.84196E-005	0.00000E+000	7.50005E-001	7.48943E-001	7	...........
	236	47.4	7.59611E-001	1.88706E-005	0.00000E+000	7.60004E-001	7.58747E-001	7	...........
	237	47.6	7.69411E-001	1.93449E-005	0.00000E+000	7.70003E-001	7.68751E-001	7	...........
	238	47.8	7.79411E-001	1.98410E-005	0.00000E+000	7.80001E-001	7.78954E-001	7	...........
	239	48	7.89411E-001	2.03604E-005	0.00000E+000	7.90000E-001	7.88958E-001	7	...........
	240	48.2	7.99412E-001	2.09016E-005	0.00000E+000	7.99999E-001	7.98962E-001	7	...........
CURVE2	TABLE
	Pt	T	Vf	Im	Vu	Sig	Ach	IERange	Over
	#	s	V vs. Ref.	A	V	V	V	#	bits
	241	48.4	7.88811E-001	1.65574E-005	0.00000E+000	7.90000E-001	7.88958E-001	7	...........
	242	48.6	7.79211E-001	1.39234E-005	0.00000E+000	7.80001E-001	7.78954E-001	7	...........
	243	48.8	7.69211E-001	1.20027E-005	0.00000E+000	7.70003E-001	7.68951E-001	7	...........
	244	49	7.59011E-001	1.04928E-005	0.00000E+000	7.60004E-001	7.58947E-001	7	...........
	245	49.2	7.49211E-001	9.25017E-006	0.00000E+000	7.50005E-001	7.49143E-001	7	...........
	246	49.4	7.39010E-001	8.20128E-006	0.00000E+000	7.40007E-001	7.38940E-001	7	...........
	247	49.6	7.29210E-001	7.30270E-006	0.00000E+000	7.30008E-001	7.28936E-001	7	...........
	248	49.8	7.19210E-001	6.51770E-006	0.00000E+000	7.20009E-001	7.18932E-001	7	...........
	249	50	7.09010E-001	5.82623E-006	0.00000E+000	7.10010E-001	7.09129E-001	7	...........
	250	50.2	6.99209E-001	5.20658E-006	0.00000E+000	7.00012E-001	6.99125E-001	7	...........
	251	50.4	6.89009E-001	4.64706E-006	0.00000E+000	6.90013E-001	6.88921E-001	7	...........
	252	50.6	6.79009E-001	4.14433E-006	0.00000E+000	6.80014E-001	6.78917E-001	7	...........
	253	50.8	6.69209E-001	3.68502E-006	0.00000E+000	6.70015E-001	6.69114E-001	7	...........
	254	51	6.59208E-001	3.26747E-006	0.00000E+000	6.60017E-001	6.59310E-001	7	...........
	255	51.2	6.49008E-001	2.87163E-006	0.00000E+000	6.50018E-001	6.48906E-001	7	...........
	256	51.4	6.39208E-001	2.51420E-006	0.00000E+000	6.40019E-001	6.39103E-001	7	...........
	257	51.6	6.29208E-001	2.17849E-006	0.00000E+000	6.30020E-001	6.29099E-001	7	...........
	258	51.8	6.19208E-001	1.86616E-006	0.00000E+000	6.20022E-001	6.19095E-001	7	...........
	259	52	6.09207E-001	1.57220E-006	0.00000E+000	6.10023E-001	6.09092E-001	7	...........
	260	52.2	5.99207E-001	1.29661E-006	0.00000E+000	6.00024E-001	5.99088E-001	7	...........
	261	52.4	5.89407E-001	1.02938E-006	0.00000E+000	5.89975E-001	5.89084E-001	7	...........
	262	52.6	5.79007E-001	7.85529E-007	0.00000E+000	5.79977E-001	5.79280E-001	7	...........
	263	52.8	5.69206E-001	5.55040E-007	0.00000E+000	5.69978E-001	5.69077E-001	7	...........
	264	53	5.59206E-001	3.34571E-007	0.00000E+000	5.59979E-001	5.59073E-001	7	...........
	265	53.2	5.49206E-001	1.25795E-007	0.00000E+000	5.49981E-001	5.49269E-001	7	...........
	266	53.4	5.39206E-001	-7.63011E-008	0.00000E+000	5.39982E-001	5.39066E-001	7	...........
	267	53.6	5.29006E-001	-2.65035E-007	0.00000E+000	5.29983E-001	5.29262E-001	7	...........
	268	53.8	5.19205E-001	-4.43748E-007	0.00000E+000	5.19984E-001	5.19058E-001	7	...........
	269	54	5.09005E-001	-6.19121E-007	0.00000E+000	5.09986E-001	5.09055E-001	7	...........
	270	54.2	4.99405E-001	-7.82801E-007	0.00000E+000	4.99987E-001	4.99251E-001	7	...........
	271	54.4	4.89205E-001	-9.36461E-007	0.00000E+000	4.89988E-001	4.89047E-001	7	...........
	272	54.6	4.79204E-001	-1.08845E-006	0.00000E+000	4.79989E-001	4.79043E-001	7	...........
	273	54.8	4.69004E-001	-1.23042E-006	0.00000E+000	4.69991E-001	4.69240E-001	7	...........
	274	55	4.59404E-001	-1.36905E-006	0.00000E+000	4.59992E-001	4.59236E-001	7	...........
	275	55.2	4.49004E-001	-1.49598E-006	0.00000E+000	4.49993E-001	4.49232E-001	7	...........
	276	55.4	4.39203E-001	-1.62292E-006	0.00000E+000	4.39994E-001	4.39229E-001	7	...........
	277	55.6	4.29203E-001	-1.74150E-006	0.00000E+000	4.29996E-001	4.29225E-001	7	...........
	278	55.8	4.19403E-001	-1.85341E-006	0.00000E+000	4.19997E-001	4.19221E-001	7	...........
	279	56	4.09403E-001	-1.96531E-006	0.00000E+000	4.09998E-001	4.09418E-001	7	...........
	280	56.2	3.99203E-001	-2.06887E-006	0.00000E+000	3.99999E-001	3.99214E-001	7	...........
	281	56.4	3.89402E-001	-2.17075E-006	0.00000E+000	3.90001E-001	3.89210E-001	7	...........
	282	56.6	3.79202E-001	-2.26428E-006	0.00000E+000	3.80002E-001	3.79207E-001	7	...........
	283	56.8	3.69402E-001	-2.35614E-006	0.00000E+000	3.70003E-001	3.69403E-001	7	...........
	284	57	3.59402E-001	-2.44800E-006	0.00000E+000	3.60005E-001	3.59199E-001	7	...........
	285	57.2	3.49401E-001	-2.53319E-006	0.00000E+000	3.50006E-001	3.49195E-001	7	...........
	286	57.4	3.39201E-001	-2.61837E-006	0.00000E+000	3.40007E-001	3.39192E-001	7	...........
	287	57.6	3.29401E-001	-2.70188E-006	0.00000E+000	3.30008E-001	3.29388E-001	7	...........
	288	57.8	3.19401E-001	-2.77871E-006	0.00000E+000	3.20010E-001	3.19384E-001	7	...........
	289	58	3.09401E-001	-2.85888E-006	0.00000E+000	3.10011E-001	3.09381E-001	7	...........
	290	58.2	2.99400E-001	-2.93571E-006	0.00000E+000	3.00012E-001	2.99177E-001	7	...........
	291	58.4	2.89400E-001	-3.01254E-006	0.00000E+000	2.90013E-001	2.89373E-001	7	...........
	292	58.6	2.79400E-001	-3.08770E-006	0.00000E+000	2.80015E-001	2.79370E-001	7	...........
	293	58.8	2.69400E-001	-3.16119E-006	0.00000E+000	2.70016E-001	2.69366E-001	7	...........
	294	59	2.59399E-001	-3.23468E-006	0.00000E+000	2.60017E-001	2.59362E-001	7	...........
	295	59.2	2.49399E-001	-3.30983E-006	0.00000E+000	2.50018E-001	2.49559E-001	7	...........
	296	59.4	2.39399E-001	-3.38165E-006	0.00000E+000	2.40020E-001	2.39355E-001	7	...........
	297	59.6	2.29399E-001	-3.45681E-006	0.00000E+000	2.30021E-001	2.29351E-001	7	...........
	298	59.8	2.19399E-001	-3.52863E-006	0.00000E+000	2.20022E-001	2.19347E-001	7	...........
	299	60	2.09398E-001	-3.60212E-006	0.00000E+000	2.10023E-001	2.09344E-001	7	...........
	300	60.2	1.99398E-001	-3.67394E-006	0.00000E+000	2.00025E-001	1.99340E-001	7	...........
	301	60.4	1.89398E-001	-3.74910E-006	0.00000E+000	1.90026E-001	1.89336E-001	7	...........
	302	60.6	1.79398E-001	-3.82927E-006	0.00000E+000	1.79977E-001	1.79333E-001	7	...........
	303	60.8	1.69397E-001	-3.90109E-006	0.00000E+000	1.69979E-001	1.69329E-001	7	...........
	304	61	1.59397E-001	-3.97458E-006	0.00000E+000	1.59980E-001	1.59325E-001	7	...........
	305	61.2	1.49397E-001	-4.05308E-006	0.00000E+000	1.49981E-001	1.49322E-001	7	...........
	306	61.4	1.39597E-001	-4.12824E-006	0.00000E+000	1.39982E-001	1.39518E-001	7	...........
	307	61.6	1.29596E-001	-4.20674E-006	0.00000E+000	1.29984E-001	1.29514E-001	7	...........
	308	61.8	1.19396E-001	-4.28190E-006	0.00000E+000	1.19985E-001	1.19511E-001	7	...........
	309	62	1.09396E-001	-4.36374E-006	0.00000E+000	1.09986E-001	1.09507E-001	7	...........
	310	62.2	9.95958E-002	-4.44224E-006	0.00000E+000	9.99874E-002	9.93031E-002	7	...........
	311	62.4	8.93956E-002	-4.52241E-006	0.00000E+000	8.99886E-002	8.92994E-002	7	...........
	312	62.6	7.95953E-002	-4.60592E-006	0.00000E+000	7.99899E-002	7.92957E-002	7	...........
	313	62.8	6.95951E-002	-4.68943E-006	0.00000E+000	6.99912E-002	6.94921E-002	7	...........
	314	63	5.93949E-002	-4.77294E-006	0.00000E+000	5.99924E-002	5.96885E-002	7	...........
	315	63.2	4.95946E-002	-4.85979E-006	0.00000E+000	4.99937E-002	4.94847E-002	7	...........
	316	63.4	3.95944E-002	-4.94497E-006	0.00000E+000	3.99949E-002	3.94810E-002	7	...........
	317	63.6	2.95942E-002	-5.03183E-006	0.00000E+000	2.99962E-002	2.96774E-002	7	...........
	318	63.8	1.95940E-002	-5.12035E-006	0.00000E+000	1.99975E-002	1.94736E-002	7	...........
	319	64	9.59374E-003	-5.20887E-006	0.00000E+000	9.99874E-003	9.46990E-003	7	...........
	320	64.2	-4.06489E-004	-5.30073E-006	0.00000E+000	0.00000E+000	-5.33797E-004	7	...........
	321	64.4	-1.04067E-002	-5.38758E-006	0.00000E+000	-9.99874E-003	-1.03374E-002	7	...........
	322	64.6	-2.04069E-002	-5.47777E-006	0.00000E+000	-1.99975E-002	-2.01410E-002	7	...........
	323	64.8	-3.04072E-002	-5.56462E-006	0.00000E+000	-2.99962E-002	-3.03448E-002	7	...........
	324	65	-4.04074E-002	-5.65314E-006	0.00000E+000	-3.99949E-002	-4.05486E-002	7	...........
	325	65.2	-5.04076E-002	-5.73833E-006	0.00000E+000	-4.99937E-002	-5.03522E-002	7	...........
	326	65.4	-6.04079E-002	-5.82518E-006	0.00000E+000	-5.99924E-002	-6.01558E-002	7	...........
	327	65.6	-7.04081E-002	-5.91203E-006	0.00000E+000	-6.99912E-002	-7.03596E-002	7	...........
	328	65.8	-8.04083E-002	-5.99721E-006	0.00000E+000	-7.99899E-002	-8.05634E-002	7	...........
	329	66	-9.06085E-002	-6.07905E-006	0.00000E+000	-8.99886E-002	-9.03670E-002	7	...........
	330	66.2	-1.00209E-001	-6.16590E-006	0.00000E+000	-9.99874E-002	-1.00371E-001	7	...........
	331	66.4	-1.10609E-001	-6.24607E-006	0.00000E+000	-1.09986E-001	-1.10374E-001	7	...........
	332	66.6	-1.20209E-001	-6.33125E-006	0.00000E+000	-1.19985E-001	-1.20378E-001	7	...........
	333	66.8	-1.30609E-001	-6.41643E-006	0.00000E+000	-1.29984E-001	-1.30582E-001	7	...........
	334	67	-1.40410E-001	-6.50161E-006	0.00000E+000	-1.39982E-001	-1.40385E-001	7	...........
	335	67.2	-1.50210E-001	-6.59013E-006	0.00000E+000	-1.49981E-001	-1.50389E-001	7	...........
	336	67.4	-1.60410E-001	-6.68033E-006	0.00000E+000	-1.59980E-001	-1.60393E-001	7	...........
	337	67.6	-1.70210E-001	-6.77720E-006	0.00000E+000	-1.69979E-001	-1.70197E-001	7	...........
	338	67.8	-1.80411E-001	-6.86739E-006	0.00000E+000	-1.79977E-001	-1.80200E-001	7	...........
	339	68	-1.90211E-001	-6.97094E-006	0.00000E+000	-1.89976E-001	-1.90204E-001	7	...........
	340	68.2	-2.00411E-001	-7.07450E-006	0.00000E+000	-1.99975E-001	-2.00408E-001	7	...........
	341	68.4	-2.10411E-001	-7.18306E-006	0.00000E+000	-2.09973E-001	-2.10211E-001	7	...........
	342	68.6	-2.20411E-001	-7.30332E-006	0.00000E+000	-2.20022E-001	-2.20415E-001	7	...........
	343	68.8	-2.30212E-001	-7.42190E-006	0.00000E+000	-2.30021E-001	-2.30219E-001	7	...........
	344	69	-2.40212E-001	-7.54550E-006	0.00000E+000	-2.40020E-001	-2.40422E-001	7	...........
	345	69.2	-2.50412E-001	-7.67911E-006	0.00000E+000	-2.50018E-001	-2.50026E-001	7	...........
	346	69.4	-2.60212E-001	-7.81774E-006	0.00000E+000	-2.60017E-001	-2.60430E-001	7	...........
	347	69.6	-2.70213E-001	-7.96472E-006	0.00000E+000	-2.70016E-001	-2.70233E-001	7	...........
	348	69.8	-2.80213E-001	-8.12005E-006	0.00000E+000	-2.80015E-001	-2.80237E-001	7	...........
	349	70	-2.90213E-001	-8.27872E-006	0.00000E+000	-2.90013E-001	-2.90441E-001	7	...........
	350	70.2	-3.00213E-001	-8.44908E-006	0.00000E+000	-3.00012E-001	-3.00245E-001	7	...........
	351	70.4	-3.10214E-001	-8.62779E-006	0.00000E+000	-3.10011E-001	-3.10248E-001	7	...........
	352	70.6	-3.20214E-001	-8.81486E-006	0.00000E+000	-3.20010E-001	-3.20252E-001	7	...........
	353	70.8	-3.30214E-001	-9.01027E-006	0.00000E+000	-3.30008E-001	-3.30256E-001	7	...........
	354	71	-3.40414E-001	-9.21571E-006	0.00000E+000	-3.40007E-001	-3.40059E-001	7	...........
	355	71.2	-3.50214E-001	-9.43284E-006	0.00000E+000	-3.50006E-001	-3.50263E-001	7	...........
	356	71.4	-3.60215E-001	-9.65498E-006	0.00000E+000	-3.60005E-001	-3.60067E-001	7	...........
	357	71.6	-3.70015E-001	-9.89215E-006	0.00000E+000	-3.70003E-001	-3.70070E-001	7	...........
	358	71.8	-3.80215E-001	-1.01377E-005	0.00000E+000	-3.80002E-001	-3.80074E-001	7	...........
	359	72	-3.90415E-001	-1.03932E-005	0.00000E+000	-3.90001E-001	-3.90078E-001	7	...........
	360	72.2	-4.00016E-001	-1.06588E-005	0.00000E+000	-3.99999E-001	-4.00081E-001	7	...........
	361	72.4	-4.10016E-001	-1.09377E-005	0.00000E+000	-4.09998E-001	-4.10285E-001	7	...........
	362	72.6	-4.20216E-001	-1.12283E-005	0.00000E+000	-4.19997E-001	-4.20089E-001	7	...........
	363	72.8	-4.30216E-001	-1.15290E-005	0.00000E+000	-4.29996E-001	-4.30093E-001	7	...........
	364	73	-4.40016E-001	-1.18413E-005	0.00000E+000	-4.39994E-001	-4.40096E-001	7	...........
	365	73.2	-4.50217E-001	-1.21653E-005	0.00000E+000	-4.49993E-001	-4.50100E-001	7	...........
	366	73.4	-4.60417E-001	-1.25060E-005	0.00000E+000	-4.59992E-001	-4.60104E-001	7	...........
	367	73.6	-4.70017E-001	-1.28534E-005	0.00000E+000	-4.69991E-001	-4.70107E-001	7	...........
	368	73.8	-4.80217E-001	-1.32142E-005	0.00000E+000	-4.79989E-001	-4.80111E-001	7	...........
	369	74	-4.90018E-001	-1.35883E-005	0.00000E+000	-4.89988E-001	-4.90115E-001	7	...........
	370	74.2	-5.00218E-001	-1.39741E-005	0.00000E+000	-4.99987E-001	-4.99918E-001	7	...........
	371	74.4	-5.10218E-001	-1.43783E-005	0.00000E+000	-5.09986E-001	-5.09922E-001	7	...........
	372	74.6	-5.20218E-001	-1.47926E-005	0.00000E+000	-5.19984E-001	-5.20126E-001	7	...........
	373	74.8	-5.30019E-001	-1.52268E-005	0.00000E+000	-5.29983E-001	-5.30130E-001	7	...........
	374	75	-5.40219E-001	-1.56761E-005	0.00000E+000	-5.39982E-001	-5.40133E-001	7	...........
	375	75.2	-5.50019E-001	-1.61404E-005	0.00000E+000	-5.49981E-001	-5.49937E-001	7	...........
	376	75.4	-5.60019E-001	-1.66248E-005	0.00000E+000	-5.59979E-001	-5.59941E-001	7	...........
	377	75.6	-5.70019E-001	-1.71225E-005	0.00000E+000	-5.69978E-001	-5.69944E-001	7	...........
	378	75.8	-5.79820E-001	-1.76469E-005	0.00000E+000	-5.79977E-001	-5.79948E-001	7	...........
	379	76	-5.90020E-001	-1.81948E-005	0.00000E+000	-5.89975E-001	-5.90152E-001	7	...........
	380	76.2	-6.00020E-001	-1.87526E-005	0.00000E+000	-5.99974E-001	-5.99955E-001	7	...........
	381	76.4	-6.10220E-001	-1.93456E-005	0.00000E+000	-6.09973E-001	-6.09959E-001	7	...........
	382	76.6	-6.20221E-001	-1.99652E-005	0.00000E+000	-6.20022E-001	-6.19963E-001	7	...........
	383	76.8	-6.30021E-001	-2.05965E-005	0.00000E+000	-6.30020E-001	-6.29966E-001	7	...........
	384	77	-6.40021E-001	-2.12596E-005	0.00000E+000	-6.40019E-001	-6.39970E-001	7	...........
	385	77.2	-6.50221E-001	-2.19494E-005	0.00000E+000	-6.50018E-001	-6.49974E-001	7	...........
	386	77.4	-6.60022E-001	-2.26760E-005	0.00000E+000	-6.60017E-001	-6.59978E-001	7	...........
	387	77.6	-6.70022E-001	-2.34292E-005	0.00000E+000	-6.70015E-001	-6.69981E-001	7	...........
	388	77.8	-6.80022E-001	-2.42226E-005	0.00000E+000	-6.80014E-001	-6.79785E-001	7	...........
	389	78	-6.90022E-001	-2.50577E-005	0.00000E+000	-6.90013E-001	-6.89989E-001	7	...........
	390	78.2	-7.00022E-001	-2.59262E-005	0.00000E+000	-7.00012E-001	-6.99792E-001	7	...........
	391	78.4	-7.10023E-001	-2.68615E-005	0.00000E+000	-7.10010E-001	-7.09796E-001	7	...........
	392	78.6	-7.20023E-001	-2.78319E-005	0.00000E+000	-7.20009E-001	-7.20000E-001	7	...........
	393	78.8	-7.30023E-001	-2.88641E-005	0.00000E+000	-7.30008E-001	-7.29803E-001	7	...........
	394	79	-7.40023E-001	-2.99648E-005	0.00000E+000	-7.40007E-001	-7.40007E-001	7	...........
	395	79.2	-7.50024E-001	-3.11289E-005	0.00000E+000	-7.50005E-001	-7.49811E-001	7	...........
	396	79.4	-7.60024E-001	-3.23732E-005	0.00000E+000	-7.60004E-001	-7.59814E-001	7	...........
	397	79.6	-7.69824E-001	-3.37027E-005	0.00000E+000	-7.70003E-001	-7.69818E-001	7	...........
	398	79.8	-7.80024E-001	-3.51140E-005	0.00000E+000	-7.80001E-001	-7.79822E-001	7	...........
	399	80	-7.89824E-001	-3.66356E-005	0.00000E+000	-7.90000E-001	-7.89825E-001	7	...........
	400	80.2	-7.99825E-001	-3.82540E-005	0.00000E+000	-7.99999E-001	-7.99829E-001	7	...........
	401	80.4	-7.89624E-001	-2.97811E-005	0.00000E+000	-7.90000E-001	-7.89825E-001	7	...........
	402	80.6	-7.79624E-001	-2.48472E-005	0.00000E+000	-7.80001E-001	-7.79822E-001	7	...........
	403	80.8	-7.69624E-001	-2.12245E-005	0.00000E+000	-7.70003E-001	-7.70018E-001	7	...........
	404	81	-7.59824E-001	-1.83451E-005	0.00000E+000	-7.60004E-001	-7.59814E-001	7	...........
	405	81.2	-7.49824E-001	-1.59701E-005	0.00000E+000	-7.50005E-001	-7.50011E-001	7	...........
	406	81.4	-7.39823E-001	-1.39708E-005	0.00000E+000	-7.40007E-001	-7.39807E-001	7	...........
	407	81.6	-7.29623E-001	-1.22455E-005	0.00000E+000	-7.30008E-001	-7.29803E-001	7	...........
	408	81.8	-7.19823E-001	-1.07523E-005	0.00000E+000	-7.20009E-001	-7.20000E-001	7	...........
	409	82	-7.09623E-001	-9.44620E-006	0.00000E+000	-7.10010E-001	-7.09796E-001	7	...........
	410	82.2	-6.99622E-001	-8.28373E-006	0.00000E+000	-7.00012E-001	-6.99792E-001	7	...........
	411	82.4	-6.89622E-001	-7.25321E-006	0.00000E+000	-6.90013E-001	-6.89989E-001	7	...........
	412	82.6	-6.79622E-001	-6.32791E-006	0.00000E+000	-6.80014E-001	-6.79985E-001	7	...........
	413	82.8	-6.69822E-001	-5.50115E-006	0.00000E+000	-6.70015E-001	-6.70181E-001	7	...........
	414	83	-6.59622E-001	-4.74789E-006	0.00000E+000	-6.60017E-001	-6.60178E-001	7	...........
	415	83.2	-6.49621E-001	-4.06811E-006	0.00000E+000	-6.50018E-001	-6.49774E-001	7	...........
	416	83.4	-6.39821E-001	-3.45180E-006	0.00000E+000	-6.40019E-001	-6.39970E-001	7	...........
	417	83.6	-6.29621E-001	-2.88393E-006	0.00000E+000	-6.30020E-001	-6.30167E-001	7	...........
[...]
	742	148.6	-5.79820E-001	-5.07216E-007	0.00000E+000	-5.79977E-001	-5.79948E-001	7	...........
	743	148.8	-5.69819E-001	-1.73174E-007	0.00000E+000	-5.69978E-001	-5.69944E-001	7	...........
	744	149	-5.60019E-001	1.30805E-007	0.00000E+000	-5.59979E-001	-5.60141E-001	7	...........
	745	149.2	-5.49819E-001	4.23093E-007	0.00000E+000	-5.49981E-001	-5.49737E-001	7	...........
	746	149.4	-5.39619E-001	6.88657E-007	0.00000E+000	-5.39982E-001	-5.40133E-001	7	...........
	747	149.6	-5.29619E-001	9.40859E-007	0.00000E+000	-5.29983E-001	-5.29930E-001	7	...........
	748	149.8	-5.19818E-001	1.17469E-006	0.00000E+000	-5.19984E-001	-5.20126E-001	7	...........
	749	150	-5.09818E-001	1.39015E-006	0.00000E+000	-5.09986E-001	-5.10122E-001	7	...........
	750	150.2	-4.99618E-001	1.59892E-006	0.00000E+000	-4.99987E-001	-4.99918E-001	7	...........
	751	150.4	-4.89818E-001	1.79100E-006	0.00000E+000	-4.89988E-001	-4.90115E-001	7	...........
	752	150.6	-4.79817E-001	1.97305E-006	0.00000E+000	-4.79989E-001	-4.80111E-001	7	...........
	753	150.8	-4.69617E-001	2.14508E-006	0.00000E+000	-4.69991E-001	-4.70107E-001	7	...........
	754	151	-4.59817E-001	2.30375E-006	0.00000E+000	-4.59992E-001	-4.60104E-001	7	...........
	755	151.2	-4.49817E-001	2.45574E-006	0.00000E+000	-4.49993E-001	-4.50300E-001	7	...........
	756	151.4	-4.39817E-001	2.59604E-006	0.00000E+000	-4.39994E-001	-4.39896E-001	7	...........
	757	151.6	-4.29816E-001	2.73634E-006	0.00000E+000	-4.29996E-001	-4.30093E-001	7	...........
	758	151.8	-4.19816E-001	2.86160E-006	0.00000E+000	-4.19997E-001	-4.20089E-001	7	...........
	759	152	-4.10016E-001	2.98019E-006	0.00000E+000	-4.09998E-001	-4.10285E-001	7	...........
	760	152.2	-4.00016E-001	3.09376E-006	0.00000E+000	-3.99999E-001	-4.00282E-001	7	...........
	761	152.4	-3.89815E-001	3.19732E-006	0.00000E+000	-3.90001E-001	-3.90078E-001	7	...........
	762	152.6	-3.80015E-001	3.29753E-006	0.00000E+000	-3.80002E-001	-3.80074E-001	7	...........
	763	152.8	-3.70015E-001	3.39273E-006	0.00000E+000	-3.70003E-001	-3.70270E-001	7	...........
	764	153	-3.59815E-001	3.47624E-006	0.00000E+000	-3.60005E-001	-3.60267E-001	7	...........
	765	153.2	-3.49814E-001	3.55808E-006	0.00000E+000	-3.50006E-001	-3.50063E-001	7	...........
	766	153.4	-3.39814E-001	3.63324E-006	0.00000E+000	-3.40007E-001	-3.40259E-001	7	...........
	767	153.6	-3.29814E-001	3.70339E-006	0.00000E+000	-3.30008E-001	-3.30256E-001	7	...........
	768	153.8	-3.19814E-001	3.77020E-006	0.00000E+000	-3.20010E-001	-3.20452E-001	7	...........
	769	154	-3.10014E-001	3.83367E-006	0.00000E+000	-3.10011E-001	-3.10248E-001	7	...........
	770	154.2	-2.99813E-001	3.89046E-006	0.00000E+000	-3.00012E-001	-3.00245E-001	7	...........
	771	154.4	-2.90013E-001	3.94223E-006	0.00000E+000	-2.90013E-001	-2.90241E-001	7	...........
	772	154.6	-2.80013E-001	3.99401E-006	0.00000E+000	-2.80015E-001	-2.80037E-001	7	...........
	773	154.8	-2.70213E-001	4.04078E-006	0.00000E+000	-2.70016E-001	-2.70434E-001	7	...........
	774	155	-2.60012E-001	4.08587E-006	0.00000E+000	-2.60017E-001	-2.60230E-001	7	...........
	775	155.2	-2.50212E-001	4.12596E-006	0.00000E+000	-2.50018E-001	-2.50426E-001	7	...........
	776	155.4	-2.40012E-001	4.16604E-006	0.00000E+000	-2.40020E-001	-2.40222E-001	7	...........
	777	155.6	-2.30012E-001	4.20279E-006	0.00000E+000	-2.30021E-001	-2.30219E-001	7	...........
	778	155.8	-2.19811E-001	4.24287E-006	0.00000E+000	-2.20022E-001	-2.20415E-001	7	...........
	779	156	-2.10011E-001	4.28129E-006	0.00000E+000	-2.09973E-001	-2.10211E-001	7	...........
	780	156.2	-2.00011E-001	4.31135E-006	0.00000E+000	-1.99975E-001	-2.00208E-001	7	...........
	781	156.4	-1.90011E-001	4.34475E-006	0.00000E+000	-1.89976E-001	-1.90204E-001	7	...........
	782	156.6	-1.80211E-001	4.37816E-006	0.00000E+000	-1.79977E-001	-1.80400E-001	7	...........
	783	156.8	-1.70010E-001	4.40989E-006	0.00000E+000	-1.69979E-001	-1.70197E-001	7	...........
	784	157	-1.60010E-001	4.44330E-006	0.00000E+000	-1.59980E-001	-1.60393E-001	7	...........
	785	157.2	-1.50010E-001	4.47670E-006	0.00000E+000	-1.49981E-001	-1.50389E-001	7	...........
	786	157.4	-1.40010E-001	4.50844E-006	0.00000E+000	-1.39982E-001	-1.40185E-001	7	...........
	787	157.6	-1.30209E-001	4.54184E-006	0.00000E+000	-1.29984E-001	-1.30382E-001	7	...........
	788	157.8	-1.20209E-001	4.57524E-006	0.00000E+000	-1.19985E-001	-1.20378E-001	7	...........
	789	158	-1.10209E-001	4.61032E-006	0.00000E+000	-1.09986E-001	-1.10374E-001	7	...........
	790	158.2	-1.00009E-001	4.64706E-006	0.00000E+000	-9.99874E-002	-1.00371E-001	7	...........
	791	158.4	-9.00085E-002	4.68381E-006	0.00000E+000	-8.99886E-002	-9.03670E-002	7	...........
	792	158.6	-8.02083E-002	4.72222E-006	0.00000E+000	-7.99899E-002	-8.03633E-002	7	...........
	793	158.8	-7.00081E-002	4.76064E-006	0.00000E+000	-6.99912E-002	-7.01595E-002	7	...........
	794	159	-6.00078E-002	4.80239E-006	0.00000E+000	-5.99924E-002	-6.05560E-002	7	...........
	795	159.2	-5.02076E-002	4.84415E-006	0.00000E+000	-4.99937E-002	-5.03522E-002	7	...........
	796	159.4	-4.02074E-002	4.88924E-006	0.00000E+000	-3.99949E-002	-4.03485E-002	7	...........
	797	159.6	-3.00072E-002	4.93434E-006	0.00000E+000	-2.99962E-002	-3.03448E-002	7	...........
	798	159.8	-2.02069E-002	4.98278E-006	0.00000E+000	-1.99975E-002	-2.03411E-002	7	...........
	799	160	-1.02067E-002	5.03121E-006	0.00000E+000	-9.99874E-003	-1.05375E-002	7	...........
	800	160.2	-2.06485E-004	5.08299E-006	0.00000E+000	0.00000E+000	-3.33723E-004	7	...........
	801	160.4	9.79374E-003	5.13310E-006	0.00000E+000	9.99874E-003	9.46990E-003	7	...........
	802	160.6	1.97940E-002	5.18988E-006	0.00000E+000	1.99975E-002	1.96737E-002	7	...........
	803	160.8	2.97942E-002	5.24667E-006	0.00000E+000	2.99962E-002	2.94773E-002	7	...........
	804	161	3.97944E-002	5.30680E-006	0.00000E+000	3.99949E-002	3.92809E-002	7	...........
	805	161.2	4.97947E-002	5.36358E-006	0.00000E+000	4.99937E-002	4.94847E-002	7	...........
	806	161.4	5.97949E-002	5.42538E-006	0.00000E+000	5.99924E-002	5.94884E-002	7	...........
	807	161.6	6.97951E-002	5.49052E-006	0.00000E+000	6.99912E-002	6.94921E-002	7	...........
	808	161.8	7.95953E-002	5.55566E-006	0.00000E+000	7.99899E-002	7.94958E-002	7	...........
	809	162	8.95955E-002	5.62414E-006	0.00000E+000	8.99886E-002	8.94995E-002	7	...........
	810	162.2	9.97958E-002	5.69262E-006	0.00000E+000	9.99874E-002	9.95032E-002	7	...........
	811	162.4	1.09796E-001	5.76444E-006	0.00000E+000	1.09986E-001	1.09507E-001	7	...........
	812	162.6	1.19796E-001	5.83793E-006	0.00000E+000	1.19985E-001	1.19511E-001	7	...........
	813	162.8	1.29796E-001	5.91309E-006	0.00000E+000	1.29984E-001	1.29514E-001	7	...........
	814	163	1.39797E-001	5.99326E-006	0.00000E+000	1.39982E-001	1.39518E-001	7	...........
	815	163.2	1.49797E-001	6.07009E-006	0.00000E+000	1.49981E-001	1.49522E-001	7	...........
	816	163.4	1.59797E-001	6.15360E-006	0.00000E+000	1.59980E-001	1.59325E-001	7	...........
	817	163.6	1.69597E-001	6.23878E-006	0.00000E+000	1.69979E-001	1.69329E-001	7	...........
	818	163.8	1.79798E-001	6.32396E-006	0.00000E+000	1.79977E-001	1.79533E-001	7	...........
	819	164	1.89798E-001	6.41916E-006	0.00000E+000	1.90026E-001	1.89336E-001	7	...........
	820	164.2	1.99598E-001	6.50768E-006	0.00000E+000	2.00025E-001	1.99540E-001	7	...........
	821	164.4	2.09798E-001	6.60121E-006	0.00000E+000	2.10023E-001	2.09344E-001	7	...........
	822	164.6	2.19799E-001	6.69642E-006	0.00000E+000	2.20022E-001	2.19347E-001	7	...........
	823	164.8	2.29599E-001	6.79496E-006	0.00000E+000	2.30021E-001	2.29551E-001	7	...........
	824	165	2.39799E-001	6.89684E-006	0.00000E+000	2.40020E-001	2.39355E-001	7	...........
	825	165.2	2.49599E-001	7.00039E-006	0.00000E+000	2.50018E-001	2.49359E-001	7	...........
	826	165.4	2.59599E-001	7.10729E-006	0.00000E+000	2.60017E-001	2.59362E-001	7	...........
	827	165.6	2.69800E-001	7.21585E-006	0.00000E+000	2.70016E-001	2.69366E-001	7	...........
	828	165.8	2.79600E-001	7.32776E-006	0.00000E+000	2.80015E-001	2.79370E-001	7	...........
	829	166	2.89800E-001	7.43966E-006	0.00000E+000	2.90013E-001	2.89373E-001	7	...........
	830	166.2	2.99600E-001	7.55992E-006	0.00000E+000	3.00012E-001	2.99377E-001	7	...........
	831	166.4	3.09801E-001	7.68017E-006	0.00000E+000	3.10011E-001	3.09381E-001	7	...........
	832	166.6	3.19601E-001	7.80544E-006	0.00000E+000	3.20010E-001	3.19184E-001	7	...........
	833	166.8	3.29601E-001	7.93237E-006	0.00000E+000	3.30008E-001	3.29188E-001	7	...........
	834	167	3.39601E-001	8.06432E-006	0.00000E+000	3.40007E-001	3.39192E-001	7	...........
	835	167.2	3.49801E-001	8.19961E-006	0.00000E+000	3.50006E-001	3.49195E-001	7	...........
	836	167.4	3.59602E-001	8.33824E-006	0.00000E+000	3.60005E-001	3.59199E-001	7	...........
	837	167.6	3.69602E-001	8.48354E-006	0.00000E+000	3.70003E-001	3.69203E-001	7	...........
	838	167.8	3.79602E-001	8.63219E-006	0.00000E+000	3.80002E-001	3.79207E-001	7	...........
	839	168	3.89602E-001	8.78418E-006	0.00000E+000	3.90001E-001	3.89210E-001	7	...........
	840	168.2	3.99803E-001	8.93951E-006	0.00000E+000	3.99999E-001	3.99014E-001	7	...........
	841	168.4	4.09603E-001	9.10152E-006	0.00000E+000	4.09998E-001	4.09218E-001	7	...........
	842	168.6	4.19603E-001	9.27021E-006	0.00000E+000	4.19997E-001	4.19221E-001	7	...........
	843	168.8	4.29403E-001	9.43891E-006	0.00000E+000	4.29996E-001	4.29225E-001	7	...........
	844	169	4.39604E-001	9.61929E-006	0.00000E+000	4.39994E-001	4.39229E-001	7	...........
	845	169.2	4.49404E-001	9.79967E-006	0.00000E+000	4.49993E-001	4.49232E-001	7	...........
	846	169.4	4.59604E-001	9.98340E-006	0.00000E+000	4.59992E-001	4.59236E-001	7	...........
	847	169.6	4.69604E-001	1.01755E-005	0.00000E+000	4.69991E-001	4.69240E-001	7	...........
	848	169.8	4.79404E-001	1.03709E-005	0.00000E+000	4.79989E-001	4.79043E-001	7	...........
	849	170	4.89605E-001	1.05713E-005	0.00000E+000	4.89988E-001	4.89047E-001	7	...........
	850	170.2	4.99605E-001	1.07767E-005	0.00000E+000	4.99987E-001	4.99251E-001	7	...........
	851	170.4	5.09605E-001	1.09805E-005	0.00000E+000	5.09986E-001	5.09055E-001	7	...........
	852	170.6	5.19405E-001	1.11976E-005	0.00000E+000	5.19984E-001	5.18858E-001	7	...........
	853	170.8	5.29606E-001	1.14148E-005	0.00000E+000	5.29983E-001	5.29262E-001	7	...........
	854	171	5.39406E-001	1.16386E-005	0.00000E+000	5.39982E-001	5.39066E-001	7	...........
	855	171.2	5.49406E-001	1.18674E-005	0.00000E+000	5.49981E-001	5.49069E-001	7	...........
	856	171.4	5.59406E-001	1.21012E-005	0.00000E+000	5.59979E-001	5.59073E-001	7	...........
	857	171.6	5.69406E-001	1.23417E-005	0.00000E+000	5.69978E-001	5.69077E-001	7	...........
	858	171.8	5.79407E-001	1.25889E-005	0.00000E+000	5.79977E-001	5.79080E-001	7	...........
	859	172	5.89607E-001	1.28395E-005	0.00000E+000	5.89975E-001	5.89084E-001	7	...........
	860	172.2	5.99407E-001	1.31067E-005	0.00000E+000	6.00024E-001	5.99088E-001	7	...........
	861	172.4	6.09607E-001	1.33706E-005	0.00000E+000	6.10023E-001	6.09092E-001	7	...........
	862	172.6	6.19408E-001	1.36445E-005	0.00000E+000	6.20022E-001	6.19095E-001	7	...........
	863	172.8	6.29608E-001	1.39301E-005	0.00000E+000	6.30020E-001	6.29099E-001	7	...........
	864	173	6.39408E-001	1.42224E-005	0.00000E+000	6.40019E-001	6.38903E-001	7	...........
	865	173.2	6.49608E-001	1.45247E-005	0.00000E+000	6.50018E-001	6.49106E-001	7	...........
	866	173.4	6.59608E-001	1.48387E-005	0.00000E+000	6.60017E-001	6.59110E-001	7	...........
	867	173.6	6.69409E-001	1.51644E-005	0.00000E+000	6.70015E-001	6.68914E-001	7	...........
	868	173.8	6.79609E-001	1.55018E-005	0.00000E+000	6.80014E-001	6.79117E-001	7	...........
	869	174	6.89409E-001	1.58559E-005	0.00000E+000	6.90013E-001	6.88921E-001	7	...........
	870	174.2	6.99409E-001	1.62216E-005	0.00000E+000	7.00012E-001	6.98925E-001	7	...........
	871	174.4	7.09610E-001	1.66041E-005	0.00000E+000	7.10010E-001	7.09129E-001	7	...........
	872	174.6	7.19210E-001	1.70016E-005	0.00000E+000	7.20009E-001	7.18932E-001	7	...........
	873	174.8	7.29410E-001	1.74175E-005	0.00000E+000	7.30008E-001	7.28936E-001	7	...........
	874	175	7.39410E-001	1.78518E-005	0.00000E+000	7.40007E-001	7.38940E-001	7	...........
	875	175.2	7.49611E-001	1.83094E-005	0.00000E+000	7.50005E-001	7.49143E-001	7	...........
	876	175.4	7.59411E-001	1.87854E-005	0.00000E+000	7.60004E-001	7.58947E-001	7	...........
	877	175.6	7.69411E-001	1.92865E-005	0.00000E+000	7.70003E-001	7.68951E-001	7	...........
	878	175.8	7.79411E-001	1.98076E-005	0.00000E+000	7.80001E-001	7.78954E-001	7	...........
	879	176	7.89411E-001	2.03554E-005	0.00000E+000	7.90000E-001	7.89158E-001	7	...........
	880	176.2	7.99412E-001	2.09316E-005	0.00000E+000	7.99999E-001	7.98962E-001	7	...........
CURVE4	TABLE
	Pt	T	Vf	Im	Vu	Sig	Ach	IERange	Over
	#	s	V vs. Ref.	A	V	V	V	#	bits
	881	176.4	7.89011E-001	1.66175E-005	0.00000E+000	7.90000E-001	7.88958E-001	7	...........
	882	176.6	7.79011E-001	1.39969E-005	0.00000E+000	7.80001E-001	7.78954E-001	7	...........
	883	176.8	7.69211E-001	1.20895E-005	0.00000E+000	7.70003E-001	7.69151E-001	7	...........
	884	177	7.59211E-001	1.05880E-005	0.00000E+000	7.60004E-001	7.59147E-001	7	...........
	885	177.2	7.49211E-001	9.34872E-006	0.00000E+000	7.50005E-001	7.49143E-001	7	...........
	886	177.4	7.39010E-001	8.30483E-006	0.00000E+000	7.40007E-001	7.38739E-001	7	...........
	887	177.6	7.29010E-001	7.40626E-006	0.00000E+000	7.30008E-001	7.29136E-001	7	...........
	888	177.8	7.19210E-001	6.62126E-006	0.00000E+000	7.20009E-001	7.19132E-001	7	...........
	889	178	7.09210E-001	5.92812E-006	0.00000E+000	7.10010E-001	7.08928E-001	7	...........
	890	178.2	6.99209E-001	5.30680E-006	0.00000E+000	7.00012E-001	6.98925E-001	7	...........
	891	178.4	6.89009E-001	4.74895E-006	0.00000E+000	6.90013E-001	6.89121E-001	7	...........
	892	178.6	6.79009E-001	4.24120E-006	0.00000E+000	6.80014E-001	6.79117E-001	7	...........
	893	178.8	6.69009E-001	3.77855E-006	0.00000E+000	6.70015E-001	6.68914E-001	7	...........
	894	179	6.59208E-001	3.35432E-006	0.00000E+000	6.60017E-001	6.58910E-001	7	...........
	895	179.2	6.49208E-001	2.96683E-006	0.00000E+000	6.50018E-001	6.49106E-001	7	...........
	896	179.4	6.39208E-001	2.59938E-006	0.00000E+000	6.40019E-001	6.38903E-001	7	...........
	897	179.6	6.29008E-001	2.26367E-006	0.00000E+000	6.30020E-001	6.29099E-001	7	...........
	898	179.8	6.19008E-001	1.94466E-006	0.00000E+000	6.20022E-001	6.19095E-001	7	...........
	899	180	6.09207E-001	1.65070E-006	0.00000E+000	6.10023E-001	6.09292E-001	7	...........
	900	180.2	5.99207E-001	1.37344E-006	0.00000E+000	6.00024E-001	5.99088E-001	7	...........
	901	180.4	5.89207E-001	1.10454E-006	0.00000E+000	5.89975E-001	5.89084E-001	7	...........
	902	180.6	5.79207E-001	8.60689E-007	0.00000E+000	5.79977E-001	5.79080E-001	7	...........
	903	180.8	5.69206E-001	6.25189E-007	0.00000E+000	5.69978E-001	5.69077E-001	7	...........
	904	181	5.59206E-001	4.03050E-007	0.00000E+000	5.59979E-001	5.59273E-001	7	...........
	905	181.2	5.49206E-001	1.92603E-007	0.00000E+000	5.49981E-001	5.49069E-001	7	...........
	906	181.4	5.39206E-001	-9.49260E-009	0.00000E+000	5.39982E-001	5.39266E-001	7	...........
	907	181.6	5.29206E-001	-1.99897E-007	0.00000E+000	5.29983E-001	5.29062E-001	7	...........
	908	181.8	5.19205E-001	-3.81950E-007	0.00000E+000	5.19984E-001	5.19058E-001	7	...........
	909	182	5.09405E-001	-5.55652E-007	0.00000E+000	5.09986E-001	5.09055E-001	7	...........
	910	182.2	4.99205E-001	-7.19333E-007	0.00000E+000	4.99987E-001	4.99051E-001	7	...........
	911	182.4	4.89205E-001	-8.78004E-007	0.00000E+000	4.89988E-001	4.89047E-001	7	...........
	912	182.6	4.79204E-001	-1.02665E-006	0.00000E+000	4.79989E-001	4.79043E-001	7	...........
	913	182.8	4.69204E-001	-1.16862E-006	0.00000E+000	4.69991E-001	4.69240E-001	7	...........
	914	183	4.59204E-001	-1.30725E-006	0.00000E+000	4.59992E-001	4.59036E-001	7	...........
	915	183.2	4.49204E-001	-1.43586E-006	0.00000E+000	4.49993E-001	4.49433E-001	7	...........
	916	183.4	4.39404E-001	-1.56112E-006	0.00000E+000	4.39994E-001	4.39229E-001	7	...........
	917	183.6	4.29403E-001	-1.67971E-006	0.00000E+000	4.29996E-001	4.29225E-001	7	...........
	918	183.8	4.19403E-001	-1.78994E-006	0.00000E+000	4.19997E-001	4.19221E-001	7	...........
	919	184	4.09203E-001	-1.89850E-006	0.00000E+000	4.09998E-001	4.09218E-001	7	...........
	920	184.2	3.99203E-001	-1.99872E-006	0.00000E+000	3.99999E-001	3.99214E-001	7	...........
	921	184.4	3.89402E-001	-2.10060E-006	0.00000E+000	3.90001E-001	3.89410E-001	7	...........
	922	184.6	3.79202E-001	-2.19413E-006	0.00000E+000	3.80002E-001	3.79407E-001	7	...........
	923	184.8	3.69402E-001	-2.28599E-006	0.00000E+000	3.70003E-001	3.69203E-001	7	...........
	924	185	3.59402E-001	-2.37284E-006	0.00000E+000	3.60005E-001	3.59199E-001	7	...........
	925	185.2	3.49201E-001	-2.45970E-006	0.00000E+000	3.50006E-001	3.49396E-001	7	...........
	926	185.4	3.39401E-001	-2.54321E-006	0.00000E+000	3.40007E-001	3.39192E-001	7	...........
	927	185.6	3.29201E-001	-2.62338E-006	0.00000E+000	3.30008E-001	3.29388E-001	7	...........
	928	185.8	3.19401E-001	-2.70021E-006	0.00000E+000	3.20010E-001	3.19384E-001	7	...........
	929	186	3.09401E-001	-2.77871E-006	0.00000E+000	3.10011E-001	3.09181E-001	7	...........
	930	186.2	2.99200E-001	-2.85387E-006	0.00000E+000	3.00012E-001	2.99177E-001	7	...........
	931	186.4	2.89400E-001	-2.92736E-006	0.00000E+000	2.90013E-001	2.89173E-001	7	...........
	932	186.6	2.79400E-001	-3.00252E-006	0.00000E+000	2.80015E-001	2.79370E-001	7	...........
	933	186.8	2.69400E-001	-3.07433E-006	0.00000E+000	2.70016E-001	2.69366E-001	7	...........
	934	187	2.59199E-001	-3.14782E-006	0.00000E+000	2.60017E-001	2.59362E-001	7	...........
	935	187.2	2.49399E-001	-3.21797E-006	0.00000E+000	2.50018E-001	2.49359E-001	7	...........
	936	187.4	2.39399E-001	-3.28979E-006	0.00000E+000	2.40020E-001	2.39355E-001	7	...........
	937	187.6	2.29399E-001	-3.35994E-006	0.00000E+000	2.30021E-001	2.29351E-001	7	...........
	938	187.8	2.19399E-001	-3.43009E-006	0.00000E+000	2.20022E-001	2.19347E-001	7	...........
	939	188	2.09398E-001	-3.50191E-006	0.00000E+000	2.10023E-001	2.09344E-001	7	...........
	940	188.2	1.99398E-001	-3.57039E-006	0.00000E+000	2.00025E-001	1.99340E-001	7	...........
	941	188.4	1.89398E-001	-3.64054E-006	0.00000E+000	1.90026E-001	1.89336E-001	7	...........
	942	188.6	1.79398E-001	-3.71904E-006	0.00000E+000	1.79977E-001	1.79533E-001	7	...........
	943	188.8	1.69397E-001	-3.78752E-006	0.00000E+000	1.69979E-001	1.69129E-001	7	...........
	944	189	1.59597E-001	-3.85934E-006	0.00000E+000	1.59980E-001	1.59325E-001	7	...........
	945	189.2	1.49397E-001	-3.93115E-006	0.00000E+000	1.49981E-001	1.49322E-001	7	...........
	946	189.4	1.39597E-001	-4.00297E-006	0.00000E+000	1.39982E-001	1.39518E-001	7	...........
	947	189.6	1.29596E-001	-4.07479E-006	0.00000E+000	1.29984E-001	1.29514E-001	7	...........
	948	189.8	1.19396E-001	-4.14828E-006	0.00000E+000	1.19985E-001	1.19511E-001	7	...........
	949	190	1.09396E-001	-4.22344E-006	0.00000E+000	1.09986E-001	1.09307E-001	7	...........
	950	190.2	9.93958E-002	-4.29860E-006	0.00000E+000	9.99874E-002	9.95032E-002	7	...........
	951	190.4	8.91955E-002	-4.37376E-006	0.00000E+000	8.99886E-002	8.92994E-002	7	...........
	952	190.6	7.93953E-002	-4.44892E-006	0.00000E+000	7.99899E-002	7.94958E-002	7	...........
	953	190.8	6.93951E-002	-4.52742E-006	0.00000E+000	6.99912E-002	6.94921E-002	7	...........
	954	191	5.93949E-002	-4.60592E-006	0.00000E+000	5.99924E-002	5.94884E-002	7	...........
	955	191.2	4.93946E-002	-4.68442E-006	0.00000E+000	4.99937E-002	4.94847E-002	7	...........
	956	191.4	3.95944E-002	-4.76292E-006	0.00000E+000	3.99949E-002	3.94810E-002	7	...........
	957	191.6	2.95942E-002	-4.84142E-006	0.00000E+000	2.99962E-002	2.96774E-002	7	...........
	958	191.8	1.95940E-002	-4.92326E-006	0.00000E+000	1.99975E-002	1.96737E-002	7	...........
	959	192	9.59374E-003	-5.00176E-006	0.00000E+000	9.99874E-003	9.46990E-003	7	...........
	960	192.2	-4.06489E-004	-5.08193E-006	0.00000E+000	0.00000E+000	-3.33723E-004	7	...........