File: Data/CV_Steel_Disk_No_Material_2/CV_#3.DTA
EXPLAIN
TAG	CV
TITLE	LABEL	Cyclic Voltammetry	Test Identifier
DATE	LABEL	12-7-2017	Date
TIME	LABEL	17:20:45	Time
NOTES	NOTES	1	Notes...

PSTAT	PSTAT	IFC5000-01520	Potentiostat
VINIT	POTEN	0.00000E+000	F	Initial E (V)
VLIMIT1	POTEN	-8.00000E-001	F	Scan Limit 1 (V)
VLIMIT2	POTEN	8.00000E-001	F	Scan Limit 2 (V)
VFINAL	POTEN	0.00000E+000	F	Final E (V)
SCANRATE	QUANT	9.99998E+001	A Real Number
STEPSIZE	QUANT	1.00000E+001	Step Size (mV)
CYCLES	IQUANT	3	Cycles (#)
IMODE	SELECTOR	0	I/E Range Mode
IRANGE	QUANT	2.50000E+002	Max Current (mA)
AREA	QUANT	3.84800E-001	A Real Number
EQDELAY	QUANT	1.00000E+000	Equil. Time (s)
IRCOMP	SELECTOR	0	IRComp
PFCOR	QUANT	2.50000E+002	PF Corr. (ohm)
SAMPLINGMODE	SELECTOR	0	Sampling Mode
EOC	QUANT	0	Open Circuit (V)
SEQUENCER	TOGGLE	TRUE	Run as Sequence
PSTATMODEL	IQUANT	53	Pstat Model
PSTATSECTION	LABEL	IFC5000-01520	Pstat Section
PSTATSERIALNO	LABEL	01520	Pstat Serial Number
CTRLMODE	IQUANT	1	Control Mode
ELECTROMETER	IQUANT	0	RE=0 or CS=1
IESTAB	IQUANT	2	I/E Stability
CASPEED	IQUANT	4	Control Amp Speed
CONVENTION	IQUANT	1	Current Convention
ICHRANGE	IQUANT	2	Ich Range
ICHRANGEMODE	TOGGLE	F	Ich Auto Range
ICHOFFSETENABLE	TOGGLE	F	Ich Offset Enable
ICHOFFSET	QUANT	0	Ich Offset (V)
ICHFILTER	IQUANT	4	Ich Filter
VCHRANGE	IQUANT	2	Vch Range
VCHRANGEMODE	TOGGLE	F	Vch Auto Range
VCHOFFSETENABLE	TOGGLE	F	Vch Offset Enable
VCHOFFSET	QUANT	0	Vch Offset (V)
VCHFILTER	IQUANT	4	Vch Filter
IERANGELOWERLIMIT	IQUANT	7	I/E Range Lower Limit
IERANGEMODE	TOGGLE	T	I/E AutoRange
IERANGE	IQUANT	11	I/E Range
ACHSELECT	IQUANT	1	Ach Select
ACHRANGE	IQUANT	2	Ach Range
ACHOFFSETENABLE	TOGGLE	F	Ach Offset Enable
ACHOFFSET	QUANT	0	Ach Offset (V)
ACHFILTER	IQUANT	1	Ach Filter
CABLEID	IQUANT	14	Cable ID
DCCALDATE	LABEL	5-7-2017	DC Calibration Date
ACCALDATE	LABEL	12/3/2015	AC Calibration Date
FRAMEWORKVERSION	QUANT	7.01	Framework Version
INSTRUMENTVERSION	LABEL	4.00	Instrument Version
CURVE1	TABLE
	Pt	T	Vf	Im	Vu	Sig	Ach	IERange	Over
	#	s	V vs. Ref.	A	V	V	V	#	bits
	0	0.1	-2.06485E-004	-2.80533E-005	0.00000E+000	0.00000E+000	-5.33797E-004	11	...........
	1	0.2	-1.00067E-002	-4.47849E-006	0.00000E+000	-9.99874E-003	-1.03374E-002	10	...........
	2	0.3	-2.00069E-002	-6.78212E-006	0.00000E+000	-1.99975E-002	-2.05412E-002	9	...........
	3	0.4	-3.00072E-002	-7.07338E-006	0.00000E+000	-2.99962E-002	-3.03448E-002	8	...........
	4	0.5	-4.00074E-002	-7.43693E-006	0.00000E+000	-3.99949E-002	-4.03485E-002	7	...........
	5	0.6	-5.00076E-002	-7.87620E-006	0.00000E+000	-4.99937E-002	-5.05523E-002	7	...........
	6	0.7	-6.00078E-002	-8.18686E-006	0.00000E+000	-5.99924E-002	-6.03559E-002	7	...........
	7	0.8	-7.00081E-002	-8.57101E-006	0.00000E+000	-6.99912E-002	-7.03596E-002	7	...........
	8	0.9	-8.00083E-002	-8.92342E-006	0.00000E+000	-7.99899E-002	-8.03633E-002	7	...........
	9	1	-9.00085E-002	-9.25580E-006	0.00000E+000	-8.99886E-002	-9.03670E-002	7	...........
	10	1.1	-1.00009E-001	-9.58149E-006	0.00000E+000	-9.99874E-002	-1.00371E-001	7	...........
	11	1.2	-1.10009E-001	-9.88380E-006	0.00000E+000	-1.09986E-001	-1.10374E-001	7	...........
	12	1.3	-1.20009E-001	-1.01794E-005	0.00000E+000	-1.19985E-001	-1.20378E-001	7	...........
	13	1.4	-1.30209E-001	-1.04684E-005	0.00000E+000	-1.29984E-001	-1.30182E-001	7	...........
	14	1.5	-1.40010E-001	-1.07406E-005	0.00000E+000	-1.39982E-001	-1.40385E-001	7	...........
	15	1.6	-1.50010E-001	-1.10129E-005	0.00000E+000	-1.49981E-001	-1.50389E-001	7	...........
	16	1.7	-1.60010E-001	-1.12751E-005	0.00000E+000	-1.59980E-001	-1.60193E-001	7	...........
	17	1.8	-1.70010E-001	-1.15356E-005	0.00000E+000	-1.69979E-001	-1.70397E-001	7	...........
	18	1.9	-1.80011E-001	-1.18012E-005	0.00000E+000	-1.79977E-001	-1.80400E-001	7	...........
	19	2	-1.90211E-001	-1.20551E-005	0.00000E+000	-1.89976E-001	-1.90404E-001	7	...........
	20	2.1	-2.00011E-001	-1.23156E-005	0.00000E+000	-1.99975E-001	-2.00208E-001	7	...........
	21	2.2	-2.10011E-001	-1.25895E-005	0.00000E+000	-2.10023E-001	-2.10411E-001	7	...........
	22	2.3	-2.20011E-001	-1.28451E-005	0.00000E+000	-2.20022E-001	-2.20215E-001	7	...........
	23	2.4	-2.29812E-001	-1.31157E-005	0.00000E+000	-2.30021E-001	-2.30219E-001	7	...........
	24	2.5	-2.40012E-001	-1.33846E-005	0.00000E+000	-2.40020E-001	-2.40222E-001	7	...........
	25	2.6	-2.50012E-001	-1.36718E-005	0.00000E+000	-2.50018E-001	-2.50226E-001	7	...........
	26	2.7	-2.60012E-001	-1.39574E-005	0.00000E+000	-2.60017E-001	-2.60230E-001	7	...........
	27	2.8	-2.70013E-001	-1.42564E-005	0.00000E+000	-2.70016E-001	-2.70233E-001	7	...........
	28	2.9	-2.79813E-001	-1.45654E-005	0.00000E+000	-2.80015E-001	-2.80037E-001	7	...........
	29	3	-2.89813E-001	-1.48744E-005	0.00000E+000	-2.90013E-001	-2.90241E-001	7	...........
	30	3.1	-2.99813E-001	-1.52034E-005	0.00000E+000	-3.00012E-001	-3.00245E-001	7	...........
	31	3.2	-3.09814E-001	-1.55425E-005	0.00000E+000	-3.10011E-001	-3.10248E-001	7	...........
	32	3.3	-3.19814E-001	-1.58882E-005	0.00000E+000	-3.20010E-001	-3.20252E-001	7	...........
	33	3.4	-3.29814E-001	-1.62506E-005	0.00000E+000	-3.30008E-001	-3.30256E-001	7	...........
	34	3.5	-3.40214E-001	-1.66214E-005	0.00000E+000	-3.40007E-001	-3.40059E-001	7	...........
	35	3.6	-3.50014E-001	-1.70106E-005	0.00000E+000	-3.50006E-001	-3.50063E-001	7	...........
	36	3.7	-3.59815E-001	-1.74114E-005	0.00000E+000	-3.60005E-001	-3.60067E-001	7	...........
	37	3.8	-3.69815E-001	-1.78240E-005	0.00000E+000	-3.70003E-001	-3.70070E-001	7	...........
	38	3.9	-3.80015E-001	-1.82582E-005	0.00000E+000	-3.80002E-001	-3.80274E-001	7	...........
	39	4	-3.89815E-001	-1.87042E-005	0.00000E+000	-3.90001E-001	-3.90278E-001	7	...........
	40	4.1	-3.99816E-001	-1.91668E-005	0.00000E+000	-3.99999E-001	-4.00081E-001	7	...........
	41	4.2	-4.09616E-001	-1.96445E-005	0.00000E+000	-4.09998E-001	-4.10285E-001	7	...........
	42	4.3	-4.19816E-001	-2.01322E-005	0.00000E+000	-4.19997E-001	-4.20089E-001	7	...........
	43	4.4	-4.29616E-001	-2.06500E-005	0.00000E+000	-4.29996E-001	-4.30093E-001	7	...........
	44	4.5	-4.39817E-001	-2.11744E-005	0.00000E+000	-4.39994E-001	-4.40096E-001	7	...........
	45	4.6	-4.50017E-001	-2.17206E-005	0.00000E+000	-4.49993E-001	-4.50100E-001	7	...........
	46	4.7	-4.59817E-001	-2.22918E-005	0.00000E+000	-4.59992E-001	-4.60104E-001	7	...........
	47	4.8	-4.69817E-001	-2.28647E-005	0.00000E+000	-4.69991E-001	-4.70107E-001	7	...........
	48	4.9	-4.79617E-001	-2.34676E-005	0.00000E+000	-4.79989E-001	-4.80111E-001	7	...........
	49	5	-4.89818E-001	-2.40840E-005	0.00000E+000	-4.89988E-001	-4.89915E-001	7	...........
	50	5.1	-4.99818E-001	-2.47203E-005	0.00000E+000	-4.99987E-001	-4.99918E-001	7	...........
	51	5.2	-5.09618E-001	-2.53834E-005	0.00000E+000	-5.09986E-001	-5.09922E-001	7	...........
	52	5.3	-5.19618E-001	-2.60498E-005	0.00000E+000	-5.19984E-001	-5.20126E-001	7	...........
	53	5.4	-5.29819E-001	-2.67463E-005	0.00000E+000	-5.29983E-001	-5.30130E-001	7	...........
	54	5.5	-5.39619E-001	-2.74678E-005	0.00000E+000	-5.39982E-001	-5.40133E-001	7	...........
	55	5.6	-5.49619E-001	-2.82010E-005	0.00000E+000	-5.49981E-001	-5.49737E-001	7	...........
	56	5.7	-5.59819E-001	-2.89677E-005	0.00000E+000	-5.59979E-001	-5.59941E-001	7	...........
	57	5.8	-5.69819E-001	-2.97443E-005	0.00000E+000	-5.69978E-001	-5.69944E-001	7	...........
	58	5.9	-5.79620E-001	-3.05577E-005	0.00000E+000	-5.79977E-001	-5.79948E-001	7	...........
	59	6	-5.89820E-001	-3.13995E-005	0.00000E+000	-5.89975E-001	-5.90152E-001	7	...........
	60	6.1	-5.99620E-001	-3.22580E-005	0.00000E+000	-5.99974E-001	-5.99955E-001	7	...........
	61	6.2	-6.09620E-001	-3.31933E-005	0.00000E+000	-6.10023E-001	-6.09959E-001	7	...........
	62	6.3	-6.19621E-001	-3.40902E-005	0.00000E+000	-6.20022E-001	-6.20163E-001	7	...........
	63	6.4	-6.29821E-001	-3.50456E-005	0.00000E+000	-6.30020E-001	-6.29966E-001	7	...........
	64	6.5	-6.39621E-001	-3.60393E-005	0.00000E+000	-6.40019E-001	-6.39970E-001	7	...........
	65	6.6	-6.49621E-001	-3.70565E-005	0.00000E+000	-6.50018E-001	-6.50174E-001	7	...........
	66	6.7	-6.59622E-001	-3.81304E-005	0.00000E+000	-6.60017E-001	-6.59978E-001	7	...........
	67	6.8	-6.69622E-001	-3.92328E-005	0.00000E+000	-6.70015E-001	-6.69781E-001	7	...........
	68	6.9	-6.79622E-001	-4.03802E-005	0.00000E+000	-6.80014E-001	-6.79985E-001	7	...........
	69	7	-6.89622E-001	-4.15861E-005	0.00000E+000	-6.90013E-001	-6.89989E-001	7	...........
	70	7.1	-6.99422E-001	-4.28204E-005	0.00000E+000	-7.00012E-001	-6.99992E-001	7	...........
	71	7.2	-7.10023E-001	-4.41248E-005	0.00000E+000	-7.10010E-001	-7.09996E-001	7	...........
	72	7.3	-7.19623E-001	-4.54794E-005	0.00000E+000	-7.20009E-001	-7.19800E-001	7	...........
	73	7.4	-7.29623E-001	-5.68578E-005	0.00000E+000	-7.30008E-001	-7.30003E-001	8	...........
	74	7.5	-7.39623E-001	-4.29675E-005	0.00000E+000	-7.40007E-001	-7.39807E-001	8	...........
	75	7.6	-7.49624E-001	-5.14152E-005	0.00000E+000	-7.50005E-001	-7.50011E-001	8	...........
	76	7.7	-7.59624E-001	-5.24002E-005	0.00000E+000	-7.60004E-001	-7.59814E-001	8	...........
	77	7.8	-7.69624E-001	-5.41198E-005	0.00000E+000	-7.70003E-001	-7.70018E-001	8	...........
	78	7.9	-7.79624E-001	-5.59562E-005	0.00000E+000	-7.80001E-001	-7.80022E-001	8	...........
	79	8	-7.89624E-001	-5.79095E-005	0.00000E+000	-7.90000E-001	-7.90026E-001	8	...........
	80	8.1	-7.99625E-001	-5.99463E-005	0.00000E+000	-7.99999E-001	-8.00029E-001	8	...........
	81	8.2	-7.90424E-001	-3.80926E-005	0.00000E+000	-7.90000E-001	-7.89825E-001	8	...........
	82	8.3	-7.80024E-001	-2.87622E-005	0.00000E+000	-7.80001E-001	-7.79622E-001	7	...........
	83	8.4	-7.70024E-001	-2.45783E-005	0.00000E+000	-7.70003E-001	-7.69818E-001	7	...........
	84	8.5	-7.60024E-001	-1.92754E-005	0.00000E+000	-7.60004E-001	-7.59614E-001	7	...........
	85	8.6	-7.50024E-001	-1.56110E-005	0.00000E+000	-7.50005E-001	-7.50011E-001	7	...........
	86	8.7	-7.39823E-001	-1.25461E-005	0.00000E+000	-7.40007E-001	-7.39807E-001	7	...........
	87	8.8	-7.30023E-001	-9.96062E-006	0.00000E+000	-7.30008E-001	-7.29803E-001	7	...........
	88	8.9	-7.20223E-001	-7.77265E-006	0.00000E+000	-7.20009E-001	-7.20000E-001	7	...........
	89	9	-7.10023E-001	-5.88530E-006	0.00000E+000	-7.10010E-001	-7.09996E-001	7	...........
	90	9.1	-7.00222E-001	-4.25016E-006	0.00000E+000	-7.00012E-001	-6.99992E-001	7	...........
	91	9.2	-6.90222E-001	-2.83048E-006	0.00000E+000	-6.90013E-001	-6.89989E-001	7	...........
	92	9.3	-6.80022E-001	-1.56613E-006	0.00000E+000	-6.80014E-001	-6.79985E-001	7	...........
	93	9.4	-6.70222E-001	-4.62121E-007	0.00000E+000	-6.70015E-001	-6.70181E-001	7	...........
	94	9.5	-6.60222E-001	5.24976E-007	0.00000E+000	-6.60017E-001	-6.59978E-001	7	...........
	95	9.6	-6.50021E-001	1.40184E-006	0.00000E+000	-6.50018E-001	-6.49974E-001	7	...........
	96	9.7	-6.40021E-001	2.18350E-006	0.00000E+000	-6.40019E-001	-6.40170E-001	7	...........
	97	9.8	-6.30021E-001	2.88833E-006	0.00000E+000	-6.30020E-001	-6.29966E-001	7	...........
	98	9.9	-6.20021E-001	3.51800E-006	0.00000E+000	-6.20022E-001	-6.19963E-001	7	...........
	99	10	-6.10220E-001	4.08253E-006	0.00000E+000	-6.10023E-001	-6.09959E-001	7	...........
	100	10.1	-6.00220E-001	4.63704E-006	0.00000E+000	-5.99974E-001	-5.99755E-001	7	...........
	101	10.2	-5.90220E-001	5.07130E-006	0.00000E+000	-5.89975E-001	-5.89952E-001	7	...........
	102	10.3	-5.80020E-001	5.50054E-006	0.00000E+000	-5.79977E-001	-5.79948E-001	7	...........
	103	10.4	-5.70019E-001	5.87634E-006	0.00000E+000	-5.69978E-001	-5.69944E-001	7	...........
	104	10.5	-5.60219E-001	6.21706E-006	0.00000E+000	-5.59979E-001	-5.59941E-001	7	...........
	105	10.6	-5.50219E-001	6.54109E-006	0.00000E+000	-5.49981E-001	-5.49937E-001	7	...........
	106	10.7	-5.40219E-001	6.82335E-006	0.00000E+000	-5.39982E-001	-5.39933E-001	7	...........
	107	10.8	-5.30219E-001	7.09226E-006	0.00000E+000	-5.29983E-001	-5.30130E-001	7	...........
	108	10.9	-5.20218E-001	7.33277E-006	0.00000E+000	-5.19984E-001	-5.19926E-001	7	...........
	109	11	-5.10218E-001	7.54488E-006	0.00000E+000	-5.09986E-001	-5.09922E-001	7	...........
	110	11.1	-5.00218E-001	7.75700E-006	0.00000E+000	-4.99987E-001	-5.00118E-001	7	...........
	111	11.2	-4.90218E-001	7.93738E-006	0.00000E+000	-4.89988E-001	-4.90115E-001	7	...........
	112	11.3	-4.80017E-001	8.10775E-006	0.00000E+000	-4.79989E-001	-4.80111E-001	7	...........
	113	11.4	-4.70417E-001	8.26642E-006	0.00000E+000	-4.69991E-001	-4.70107E-001	7	...........
	114	11.5	-4.60217E-001	8.40337E-006	0.00000E+000	-4.59992E-001	-4.59904E-001	7	...........
	115	11.6	-4.50217E-001	8.54200E-006	0.00000E+000	-4.49993E-001	-4.50100E-001	7	...........
	116	11.7	-4.40216E-001	8.66226E-006	0.00000E+000	-4.39994E-001	-4.40096E-001	7	...........
	117	11.8	-4.30216E-001	8.77249E-006	0.00000E+000	-4.29996E-001	-4.30093E-001	7	...........
	118	11.9	-4.20416E-001	8.87938E-006	0.00000E+000	-4.19997E-001	-4.20089E-001	7	...........
	119	12	-4.10416E-001	8.96624E-006	0.00000E+000	-4.09998E-001	-4.10285E-001	7	...........
	120	12.1	-4.00216E-001	9.05309E-006	0.00000E+000	-3.99999E-001	-4.00081E-001	7	...........
	121	12.2	-3.90215E-001	9.12825E-006	0.00000E+000	-3.90001E-001	-3.90278E-001	7	...........
	122	12.3	-3.80415E-001	9.20174E-006	0.00000E+000	-3.80002E-001	-3.80074E-001	7	...........
	123	12.4	-3.70415E-001	9.26687E-006	0.00000E+000	-3.70003E-001	-3.70070E-001	7	...........
	124	12.5	-3.60415E-001	9.31865E-006	0.00000E+000	-3.60005E-001	-3.60267E-001	7	...........
	125	12.6	-3.50214E-001	9.37210E-006	0.00000E+000	-3.50006E-001	-3.50063E-001	7	...........
	126	12.7	-3.40414E-001	9.41552E-006	0.00000E+000	-3.40007E-001	-3.40259E-001	7	...........
	127	12.8	-3.30214E-001	9.45060E-006	0.00000E+000	-3.30008E-001	-3.30256E-001	7	...........
	128	12.9	-3.20414E-001	9.49235E-006	0.00000E+000	-3.20010E-001	-3.20452E-001	7	...........
	129	13	-3.10214E-001	9.51741E-006	0.00000E+000	-3.10011E-001	-3.10248E-001	7	...........
	130	13.1	-3.00213E-001	9.54580E-006	0.00000E+000	-3.00012E-001	-3.00245E-001	7	...........
	131	13.2	-2.90413E-001	9.56584E-006	0.00000E+000	-2.90013E-001	-2.90241E-001	7	...........
	132	13.3	-2.80413E-001	9.58422E-006	0.00000E+000	-2.80015E-001	-2.80237E-001	7	...........
	133	13.4	-2.70613E-001	9.60760E-006	0.00000E+000	-2.70016E-001	-2.70233E-001	7	...........
	134	13.5	-2.60612E-001	9.61929E-006	0.00000E+000	-2.60017E-001	-2.60230E-001	7	...........
	135	13.6	-2.50412E-001	9.63432E-006	0.00000E+000	-2.50018E-001	-2.50226E-001	7	...........
	136	13.7	-2.40412E-001	9.64935E-006	0.00000E+000	-2.40020E-001	-2.40222E-001	7	...........
	137	13.8	-2.30412E-001	9.65770E-006	0.00000E+000	-2.30021E-001	-2.30419E-001	7	...........
	138	13.9	-2.20411E-001	9.67608E-006	0.00000E+000	-2.20022E-001	-2.20215E-001	7	...........
	139	14	-2.10211E-001	9.68777E-006	0.00000E+000	-2.10023E-001	-2.10411E-001	7	...........
	140	14.1	-2.00411E-001	9.71616E-006	0.00000E+000	-1.99975E-001	-2.00208E-001	7	...........
	141	14.2	-1.90411E-001	9.72451E-006	0.00000E+000	-1.89976E-001	-1.90204E-001	7	...........
	142	14.3	-1.80411E-001	9.73788E-006	0.00000E+000	-1.79977E-001	-1.80400E-001	7	...........
	143	14.4	-1.70410E-001	9.76126E-006	0.00000E+000	-1.69979E-001	-1.70397E-001	7	...........
	144	14.5	-1.60610E-001	9.78297E-006	0.00000E+000	-1.59980E-001	-1.60393E-001	7	...........
	145	14.6	-1.50410E-001	9.80468E-006	0.00000E+000	-1.49981E-001	-1.50189E-001	7	...........
	146	14.7	-1.40410E-001	9.83809E-006	0.00000E+000	-1.39982E-001	-1.40185E-001	7	...........
	147	14.8	-1.30409E-001	9.86481E-006	0.00000E+000	-1.29984E-001	-1.30582E-001	7	...........
	148	14.9	-1.20409E-001	9.90322E-006	0.00000E+000	-1.19985E-001	-1.20378E-001	7	...........
	149	15	-1.10409E-001	9.93997E-006	0.00000E+000	-1.09986E-001	-1.10374E-001	7	...........
	150	15.1	-1.00409E-001	9.97671E-006	0.00000E+000	-9.99874E-002	-1.00171E-001	7	...........
	151	15.2	-9.04085E-002	1.00268E-005	0.00000E+000	-8.99886E-002	-9.05671E-002	7	...........
	152	15.3	-8.04083E-002	1.00719E-005	0.00000E+000	-7.99899E-002	-8.03633E-002	7	...........
	153	15.4	-7.02081E-002	1.01304E-005	0.00000E+000	-6.99912E-002	-7.03596E-002	7	...........
	154	15.5	-6.04079E-002	1.01855E-005	0.00000E+000	-5.99924E-002	-6.03559E-002	7	...........
	155	15.6	-5.04076E-002	1.02439E-005	0.00000E+000	-4.99937E-002	-5.05523E-002	7	...........
	156	15.7	-4.06074E-002	1.03124E-005	0.00000E+000	-3.99949E-002	-4.05486E-002	7	...........
	157	15.8	-3.04072E-002	1.03776E-005	0.00000E+000	-2.99962E-002	-3.03448E-002	7	...........
	158	15.9	-2.04069E-002	1.04494E-005	0.00000E+000	-1.99975E-002	-2.03411E-002	7	...........
	159	16	-1.04067E-002	1.05279E-005	0.00000E+000	-9.99874E-003	-1.05375E-002	7	...........
	160	16.1	-6.06494E-004	1.06014E-005	0.00000E+000	0.00000E+000	-3.33723E-004	7	...........
	161	16.2	9.39373E-003	1.06882E-005	0.00000E+000	9.99874E-003	9.46990E-003	7	...........
	162	16.3	1.93940E-002	1.07717E-005	0.00000E+000	1.99975E-002	1.94736E-002	7	...........
	163	16.4	2.93942E-002	1.08636E-005	0.00000E+000	2.99962E-002	2.96774E-002	7	...........
	164	16.5	3.93944E-002	1.09588E-005	0.00000E+000	3.99949E-002	3.94810E-002	7	...........
	165	16.6	4.95946E-002	1.10507E-005	0.00000E+000	4.99937E-002	4.94847E-002	7	...........
	166	16.7	5.95949E-002	1.11525E-005	0.00000E+000	5.99924E-002	5.94884E-002	7	...........
	167	16.8	6.93951E-002	1.12544E-005	0.00000E+000	6.99912E-002	6.94921E-002	7	...........
	168	16.9	7.93953E-002	1.13580E-005	0.00000E+000	7.99899E-002	7.92957E-002	7	...........
	169	17	8.95955E-002	1.14699E-005	0.00000E+000	8.99886E-002	8.92994E-002	7	...........
	170	17.1	9.95958E-002	1.15785E-005	0.00000E+000	9.99874E-002	9.95032E-002	7	...........
	171	17.2	1.09396E-001	1.16970E-005	0.00000E+000	1.09986E-001	1.09507E-001	7	...........
	172	17.3	1.19396E-001	1.18140E-005	0.00000E+000	1.19985E-001	1.19310E-001	7	...........
	173	17.4	1.29396E-001	1.19342E-005	0.00000E+000	1.29984E-001	1.29514E-001	7	...........
	174	17.5	1.39397E-001	1.20645E-005	0.00000E+000	1.39982E-001	1.39518E-001	7	...........
	175	17.6	1.49397E-001	1.21881E-005	0.00000E+000	1.49981E-001	1.49322E-001	7	...........
	176	17.7	1.59397E-001	1.23267E-005	0.00000E+000	1.59980E-001	1.59525E-001	7	...........
	177	17.8	1.69397E-001	1.24620E-005	0.00000E+000	1.69979E-001	1.69329E-001	7	...........
	178	17.9	1.79198E-001	1.25990E-005	0.00000E+000	1.79977E-001	1.79333E-001	7	...........
	179	18	1.89198E-001	1.27493E-005	0.00000E+000	1.89976E-001	1.89536E-001	7	...........
	180	18.1	1.99398E-001	1.28946E-005	0.00000E+000	1.99975E-001	1.99340E-001	7	...........
	181	18.2	2.09398E-001	1.30616E-005	0.00000E+000	2.10023E-001	2.09144E-001	7	...........
	182	18.3	2.19199E-001	1.32119E-005	0.00000E+000	2.20022E-001	2.19548E-001	7	...........
	183	18.4	2.29399E-001	1.33706E-005	0.00000E+000	2.30021E-001	2.29351E-001	7	...........
	184	18.5	2.39199E-001	1.35393E-005	0.00000E+000	2.40020E-001	2.39355E-001	7	...........
	185	18.6	2.49199E-001	1.37096E-005	0.00000E+000	2.50018E-001	2.49359E-001	7	...........
	186	18.7	2.59199E-001	1.38867E-005	0.00000E+000	2.60017E-001	2.59362E-001	7	...........
	187	18.8	2.69400E-001	1.40704E-005	0.00000E+000	2.70016E-001	2.69366E-001	7	...........
	188	18.9	2.79400E-001	1.42508E-005	0.00000E+000	2.80015E-001	2.79370E-001	7	...........
	189	19	2.89400E-001	1.44495E-005	0.00000E+000	2.90013E-001	2.89573E-001	7	...........
	190	19.1	2.99400E-001	1.46450E-005	0.00000E+000	3.00012E-001	2.99177E-001	7	...........
	191	19.2	3.09401E-001	1.48487E-005	0.00000E+000	3.10011E-001	3.09181E-001	7	...........
	192	19.3	3.19201E-001	1.50625E-005	0.00000E+000	3.20010E-001	3.19384E-001	7	...........
	193	19.4	3.29201E-001	1.52763E-005	0.00000E+000	3.30008E-001	3.29188E-001	7	...........
	194	19.5	3.39401E-001	1.55001E-005	0.00000E+000	3.40007E-001	3.39192E-001	7	...........
	195	19.6	3.49201E-001	1.57273E-005	0.00000E+000	3.50006E-001	3.49396E-001	7	...........
	196	19.7	3.59202E-001	1.59611E-005	0.00000E+000	3.60005E-001	3.59199E-001	7	...........
	197	19.8	3.69402E-001	1.62083E-005	0.00000E+000	3.70003E-001	3.69203E-001	7	...........
	198	19.9	3.79202E-001	1.64538E-005	0.00000E+000	3.80002E-001	3.79207E-001	7	...........
	199	20	3.89402E-001	1.67093E-005	0.00000E+000	3.90001E-001	3.89210E-001	7	...........
	200	20.1	3.99003E-001	1.69749E-005	0.00000E+000	3.99999E-001	3.99414E-001	7	...........
	201	20.2	4.09203E-001	1.72388E-005	0.00000E+000	4.09998E-001	4.09218E-001	7	...........
	202	20.3	4.19203E-001	1.75227E-005	0.00000E+000	4.19997E-001	4.19221E-001	7	...........
	203	20.4	4.29203E-001	1.78033E-005	0.00000E+000	4.29996E-001	4.29225E-001	7	...........
	204	20.5	4.39404E-001	1.80956E-005	0.00000E+000	4.39994E-001	4.39229E-001	7	...........
	205	20.6	4.49404E-001	1.83946E-005	0.00000E+000	4.49993E-001	4.49232E-001	7	...........
	206	20.7	4.59204E-001	1.86952E-005	0.00000E+000	4.59992E-001	4.59036E-001	7	...........
	207	20.8	4.69204E-001	1.90042E-005	0.00000E+000	4.69991E-001	4.69240E-001	7	...........
	208	20.9	4.79004E-001	1.93166E-005	0.00000E+000	4.79989E-001	4.79043E-001	7	...........
	209	21	4.89005E-001	1.96339E-005	0.00000E+000	4.89988E-001	4.89047E-001	7	...........
	210	21.1	4.99005E-001	1.99629E-005	0.00000E+000	4.99987E-001	4.99251E-001	7	...........
	211	21.2	5.09205E-001	2.02869E-005	0.00000E+000	5.09986E-001	5.09055E-001	7	...........
	212	21.3	5.19205E-001	2.06277E-005	0.00000E+000	5.19984E-001	5.19258E-001	7	...........
	213	21.4	5.29006E-001	2.09667E-005	0.00000E+000	5.29983E-001	5.29062E-001	7	...........
	214	21.5	5.39206E-001	2.13058E-005	0.00000E+000	5.39982E-001	5.39266E-001	7	...........
	215	21.6	5.49206E-001	2.16649E-005	0.00000E+000	5.49981E-001	5.49069E-001	7	...........
	216	21.7	5.59006E-001	2.20173E-005	0.00000E+000	5.59979E-001	5.58873E-001	7	...........
	217	21.8	5.69206E-001	2.23864E-005	0.00000E+000	5.69978E-001	5.69277E-001	7	...........
	218	21.9	5.79007E-001	2.27555E-005	0.00000E+000	5.79977E-001	5.78880E-001	7	...........
	219	22	5.89207E-001	2.31280E-005	0.00000E+000	5.89975E-001	5.89284E-001	7	...........
	220	22.1	5.99207E-001	2.35221E-005	0.00000E+000	5.99974E-001	5.99088E-001	7	...........
	221	22.2	6.09007E-001	2.39430E-005	0.00000E+000	6.10023E-001	6.09092E-001	7	...........
	222	22.3	6.19008E-001	2.43322E-005	0.00000E+000	6.20022E-001	6.19095E-001	7	...........
	223	22.4	6.29208E-001	2.47514E-005	0.00000E+000	6.30020E-001	6.29099E-001	7	...........
	224	22.5	6.39008E-001	2.51740E-005	0.00000E+000	6.40019E-001	6.38903E-001	7	...........
	225	22.6	6.49008E-001	2.56233E-005	0.00000E+000	6.50018E-001	6.49106E-001	7	...........
	226	22.7	6.59009E-001	2.60776E-005	0.00000E+000	6.60017E-001	6.59310E-001	7	...........
	227	22.8	6.69209E-001	2.65502E-005	0.00000E+000	6.70015E-001	6.69114E-001	7	...........
	228	22.9	6.79009E-001	2.70413E-005	0.00000E+000	6.80014E-001	6.78917E-001	7	...........
	229	23	6.89209E-001	2.75440E-005	0.00000E+000	6.90013E-001	6.88921E-001	7	...........
	230	23.1	6.99009E-001	2.80768E-005	0.00000E+000	7.00012E-001	6.98925E-001	7	...........
	231	23.2	7.09010E-001	2.86263E-005	0.00000E+000	7.10010E-001	7.08928E-001	7	...........
	232	23.3	7.19210E-001	2.91942E-005	0.00000E+000	7.20009E-001	7.18932E-001	7	...........
	233	23.4	7.29010E-001	2.97971E-005	0.00000E+000	7.30008E-001	7.28736E-001	7	...........
	234	23.5	7.39010E-001	3.04185E-005	0.00000E+000	7.40007E-001	7.38940E-001	7	...........
	235	23.6	7.49011E-001	3.10765E-005	0.00000E+000	7.50005E-001	7.48943E-001	7	...........
	236	23.7	7.59011E-001	3.17613E-005	0.00000E+000	7.60004E-001	7.59147E-001	7	...........
	237	23.8	7.69211E-001	3.24728E-005	0.00000E+000	7.70003E-001	7.68751E-001	7	...........
	238	23.9	7.79011E-001	3.32294E-005	0.00000E+000	7.80001E-001	7.78954E-001	7	...........
	239	24	7.89011E-001	3.40178E-005	0.00000E+000	7.90000E-001	7.88958E-001	7	...........
	240	24.1	7.99212E-001	3.48412E-005	0.00000E+000	7.99999E-001	7.98962E-001	7	...........
CURVE2	TABLE
	Pt	T	Vf	Im	Vu	Sig	Ach	IERange	Over
	#	s	V vs. Ref.	A	V	V	V	#	bits
	241	24.2	7.89811E-001	2.13325E-005	0.00000E+000	7.90000E-001	7.88758E-001	7	...........
	242	24.3	7.79411E-001	1.67795E-005	0.00000E+000	7.80001E-001	7.78954E-001	7	...........
	243	24.4	7.69411E-001	1.35944E-005	0.00000E+000	7.70003E-001	7.68951E-001	7	...........
	244	24.5	7.59411E-001	1.11258E-005	0.00000E+000	7.60004E-001	7.58947E-001	7	...........
	245	24.6	7.49411E-001	9.14996E-006	0.00000E+000	7.50005E-001	7.48943E-001	7	...........
	246	24.7	7.39410E-001	7.51315E-006	0.00000E+000	7.40007E-001	7.39140E-001	7	...........
	247	24.8	7.29410E-001	6.13522E-006	0.00000E+000	7.30008E-001	7.29136E-001	7	...........
	248	24.9	7.19410E-001	4.94937E-006	0.00000E+000	7.20009E-001	7.18932E-001	7	...........
	249	25	7.09610E-001	3.91718E-006	0.00000E+000	7.10010E-001	7.08928E-001	7	...........
	250	25.1	6.99409E-001	3.00524E-006	0.00000E+000	7.00012E-001	6.98925E-001	7	...........
	251	25.2	6.89409E-001	2.19185E-006	0.00000E+000	6.90013E-001	6.89121E-001	7	...........
	252	25.3	6.79409E-001	1.46865E-006	0.00000E+000	6.80014E-001	6.79117E-001	7	...........
	253	25.4	6.69609E-001	8.05572E-007	0.00000E+000	6.70015E-001	6.69114E-001	7	...........
	254	25.5	6.59608E-001	2.07635E-007	0.00000E+000	6.60017E-001	6.59310E-001	7	...........
	255	25.6	6.49408E-001	-3.43535E-007	0.00000E+000	6.50018E-001	6.48906E-001	7	...........
	256	25.7	6.39608E-001	-8.56291E-007	0.00000E+000	6.40019E-001	6.38903E-001	7	...........
	257	25.8	6.29608E-001	-1.32228E-006	0.00000E+000	6.30020E-001	6.29099E-001	7	...........
	258	25.9	6.19408E-001	-1.76322E-006	0.00000E+000	6.20022E-001	6.19095E-001	7	...........
	259	26	6.09607E-001	-2.16407E-006	0.00000E+000	6.10023E-001	6.09092E-001	7	...........
	260	26.1	5.99607E-001	-2.55156E-006	0.00000E+000	6.00024E-001	5.99088E-001	7	...........
	261	26.2	5.89607E-001	-2.93571E-006	0.00000E+000	5.89975E-001	5.89084E-001	7	...........
	262	26.3	5.79607E-001	-3.25305E-006	0.00000E+000	5.79977E-001	5.79080E-001	7	...........
	263	26.4	5.69406E-001	-3.57373E-006	0.00000E+000	5.69978E-001	5.69077E-001	7	...........
	264	26.5	5.59606E-001	-3.87938E-006	0.00000E+000	5.59979E-001	5.58873E-001	7	...........
	265	26.6	5.49606E-001	-4.16331E-006	0.00000E+000	5.49981E-001	5.49269E-001	7	...........
	266	26.7	5.39606E-001	-4.43890E-006	0.00000E+000	5.39982E-001	5.39066E-001	7	...........
	267	26.8	5.29606E-001	-4.69110E-006	0.00000E+000	5.29983E-001	5.29262E-001	7	...........
	268	26.9	5.19405E-001	-4.93829E-006	0.00000E+000	5.19984E-001	5.19258E-001	7	...........
	269	27	5.09405E-001	-5.17212E-006	0.00000E+000	5.09986E-001	5.09055E-001	7	...........
	270	27.1	4.99605E-001	-5.38758E-006	0.00000E+000	4.99987E-001	4.99051E-001	7	...........
	271	27.2	4.89605E-001	-5.59803E-006	0.00000E+000	4.89988E-001	4.89047E-001	7	...........
	272	27.3	4.79404E-001	-5.79010E-006	0.00000E+000	4.79989E-001	4.79244E-001	7	...........
	273	27.4	4.69604E-001	-5.97383E-006	0.00000E+000	4.69991E-001	4.69040E-001	7	...........
	274	27.5	4.59804E-001	-6.14920E-006	0.00000E+000	4.59992E-001	4.59036E-001	7	...........
	275	27.6	4.49604E-001	-6.31121E-006	0.00000E+000	4.49993E-001	4.49032E-001	7	...........
	276	27.7	4.39604E-001	-6.46654E-006	0.00000E+000	4.39994E-001	4.39029E-001	7	...........
	277	27.8	4.29603E-001	-6.61018E-006	0.00000E+000	4.29996E-001	4.29225E-001	7	...........
	278	27.9	4.19603E-001	-6.74379E-006	0.00000E+000	4.19997E-001	4.19221E-001	7	...........
	279	28	4.09603E-001	-6.87240E-006	0.00000E+000	4.09998E-001	4.09218E-001	7	...........
	280	28.1	3.99803E-001	-6.98932E-006	0.00000E+000	3.99999E-001	3.99214E-001	7	...........
	281	28.2	3.89602E-001	-7.10623E-006	0.00000E+000	3.90001E-001	3.89010E-001	7	...........
	282	28.3	3.79602E-001	-7.21312E-006	0.00000E+000	3.80002E-001	3.79207E-001	7	...........
	283	28.4	3.69602E-001	-7.31668E-006	0.00000E+000	3.70003E-001	3.69403E-001	7	...........
	284	28.5	3.59602E-001	-7.42023E-006	0.00000E+000	3.60005E-001	3.59399E-001	7	...........
	285	28.6	3.49601E-001	-7.50875E-006	0.00000E+000	3.50006E-001	3.49195E-001	7	...........
	286	28.7	3.39801E-001	-7.60395E-006	0.00000E+000	3.40007E-001	3.39392E-001	7	...........
	287	28.8	3.29601E-001	-7.69415E-006	0.00000E+000	3.30008E-001	3.29188E-001	7	...........
	288	28.9	3.19601E-001	-7.77766E-006	0.00000E+000	3.20010E-001	3.19184E-001	7	...........
	289	29	3.09601E-001	-7.86618E-006	0.00000E+000	3.10011E-001	3.09181E-001	7	...........
	290	29.1	2.99800E-001	-7.94301E-006	0.00000E+000	3.00012E-001	2.99377E-001	7	...........
	291	29.2	2.89600E-001	-8.02819E-006	0.00000E+000	2.90013E-001	2.89373E-001	7	...........
	292	29.3	2.79800E-001	-8.11003E-006	0.00000E+000	2.80015E-001	2.79370E-001	7	...........
	293	29.4	2.69600E-001	-8.18853E-006	0.00000E+000	2.70016E-001	2.69366E-001	7	...........
	294	29.5	2.59799E-001	-8.27204E-006	0.00000E+000	2.60017E-001	2.59362E-001	7	...........
	295	29.6	2.49799E-001	-8.35221E-006	0.00000E+000	2.50018E-001	2.49359E-001	7	...........
	296	29.7	2.39799E-001	-8.43238E-006	0.00000E+000	2.40020E-001	2.39155E-001	7	...........
	297	29.8	2.29999E-001	-8.51756E-006	0.00000E+000	2.30021E-001	2.29351E-001	7	...........
	298	29.9	2.19799E-001	-8.59606E-006	0.00000E+000	2.20022E-001	2.19347E-001	7	...........
	299	30	2.09798E-001	-8.68291E-006	0.00000E+000	2.10023E-001	2.09344E-001	7	...........
	300	30.1	1.99798E-001	-8.76141E-006	0.00000E+000	2.00025E-001	1.99340E-001	7	...........
	301	30.2	1.89798E-001	-8.84993E-006	0.00000E+000	1.90026E-001	1.89536E-001	7	...........
	302	30.3	1.79798E-001	-8.95349E-006	0.00000E+000	1.79977E-001	1.79333E-001	7	...........
	303	30.4	1.69597E-001	-9.02364E-006	0.00000E+000	1.69979E-001	1.69129E-001	7	...........
	304	30.5	1.59797E-001	-9.11383E-006	0.00000E+000	1.59980E-001	1.59325E-001	7	...........
	305	30.6	1.49797E-001	-9.20402E-006	0.00000E+000	1.49981E-001	1.49322E-001	7	...........
	306	30.7	1.39997E-001	-9.29254E-006	0.00000E+000	1.39982E-001	1.39518E-001	7	...........
	307	30.8	1.29796E-001	-9.38607E-006	0.00000E+000	1.29984E-001	1.29314E-001	7	...........
	308	30.9	1.19796E-001	-9.47626E-006	0.00000E+000	1.19985E-001	1.19310E-001	7	...........
	309	31	1.09796E-001	-9.57314E-006	0.00000E+000	1.09986E-001	1.09507E-001	7	...........
	310	31.1	9.97958E-002	-9.67001E-006	0.00000E+000	9.99874E-002	9.93031E-002	7	...........
	311	31.2	8.99956E-002	-9.76521E-006	0.00000E+000	8.99886E-002	8.94995E-002	7	...........
	312	31.3	7.97953E-002	-9.86542E-006	0.00000E+000	7.99899E-002	7.94958E-002	7	...........
	313	31.4	6.99951E-002	-9.96230E-006	0.00000E+000	6.99912E-002	6.94921E-002	7	...........
	314	31.5	5.97949E-002	-1.00625E-005	0.00000E+000	5.99924E-002	5.92883E-002	7	...........
	315	31.6	4.97947E-002	-1.01661E-005	0.00000E+000	4.99937E-002	4.94847E-002	7	...........
	316	31.7	3.97944E-002	-1.02629E-005	0.00000E+000	3.99949E-002	3.94810E-002	7	...........
	317	31.8	2.99942E-002	-1.03665E-005	0.00000E+000	2.99962E-002	2.96774E-002	7	...........
	318	31.9	1.97940E-002	-1.04650E-005	0.00000E+000	1.99975E-002	1.94736E-002	7	...........
	319	32	9.99375E-003	-1.05636E-005	0.00000E+000	9.99874E-003	9.46990E-003	7	...........
	320	32.1	-6.48014E-006	-1.06638E-005	0.00000E+000	0.00000E+000	-3.33723E-004	7	...........
	321	32.2	-1.00067E-002	-1.07540E-005	0.00000E+000	-9.99874E-003	-1.03374E-002	7	...........
	322	32.3	-2.00069E-002	-1.08559E-005	0.00000E+000	-1.99975E-002	-2.03411E-002	7	...........
	323	32.4	-3.00072E-002	-1.09511E-005	0.00000E+000	-2.99962E-002	-3.03448E-002	7	...........
	324	32.5	-4.00074E-002	-1.10463E-005	0.00000E+000	-3.99949E-002	-4.05486E-002	7	...........
	325	32.6	-5.02076E-002	-1.11448E-005	0.00000E+000	-4.99937E-002	-5.03522E-002	7	...........
	326	32.7	-6.00078E-002	-1.12383E-005	0.00000E+000	-5.99924E-002	-6.03559E-002	7	...........
	327	32.8	-7.00081E-002	-1.13386E-005	0.00000E+000	-6.99912E-002	-7.01595E-002	7	...........
	328	32.9	-8.00083E-002	-1.14421E-005	0.00000E+000	-7.99899E-002	-8.03633E-002	7	...........
	329	33	-8.98085E-002	-1.15423E-005	0.00000E+000	-8.99886E-002	-9.05671E-002	7	...........
	330	33.1	-1.00009E-001	-1.16526E-005	0.00000E+000	-9.99874E-002	-1.00371E-001	7	...........
	331	33.2	-1.10009E-001	-1.17611E-005	0.00000E+000	-1.09986E-001	-1.10374E-001	7	...........
	332	33.3	-1.20009E-001	-1.18797E-005	0.00000E+000	-1.19985E-001	-1.20178E-001	7	...........
	333	33.4	-1.30009E-001	-1.20000E-005	0.00000E+000	-1.29984E-001	-1.30382E-001	7	...........
	334	33.5	-1.40010E-001	-1.21252E-005	0.00000E+000	-1.39982E-001	-1.40385E-001	7	...........
	335	33.6	-1.49810E-001	-1.22588E-005	0.00000E+000	-1.49981E-001	-1.50389E-001	7	...........
	336	33.7	-1.60010E-001	-1.23975E-005	0.00000E+000	-1.59980E-001	-1.60193E-001	7	...........
	337	33.8	-1.70210E-001	-1.25428E-005	0.00000E+000	-1.69979E-001	-1.70197E-001	7	...........
	338	33.9	-1.80011E-001	-1.26998E-005	0.00000E+000	-1.79977E-001	-1.80400E-001	7	...........
	339	34	-1.89811E-001	-1.28601E-005	0.00000E+000	-1.89976E-001	-1.90204E-001	7	...........
	340	34.1	-1.99811E-001	-1.30338E-005	0.00000E+000	-1.99975E-001	-2.00208E-001	7	...........
	341	34.2	-2.10011E-001	-1.32092E-005	0.00000E+000	-2.09973E-001	-2.10411E-001	7	...........
	342	34.3	-2.19811E-001	-1.34163E-005	0.00000E+000	-2.20022E-001	-2.20415E-001	7	...........
	343	34.4	-2.30012E-001	-1.36067E-005	0.00000E+000	-2.30021E-001	-2.30419E-001	7	...........
	344	34.5	-2.39812E-001	-1.38088E-005	0.00000E+000	-2.40020E-001	-2.40422E-001	7	...........
	345	34.6	-2.49812E-001	-1.40326E-005	0.00000E+000	-2.50018E-001	-2.50226E-001	7	...........
	346	34.7	-2.59812E-001	-1.42631E-005	0.00000E+000	-2.60017E-001	-2.60030E-001	7	...........
	347	34.8	-2.70013E-001	-1.45036E-005	0.00000E+000	-2.70016E-001	-2.70434E-001	7	...........
	348	34.9	-2.80013E-001	-1.47575E-005	0.00000E+000	-2.80015E-001	-2.80237E-001	7	...........
	349	35	-2.90013E-001	-1.50164E-005	0.00000E+000	-2.90013E-001	-2.90241E-001	7	...........
	350	35.1	-2.99813E-001	-1.52953E-005	0.00000E+000	-3.00012E-001	-3.00245E-001	7	...........
	351	35.2	-3.10014E-001	-1.55859E-005	0.00000E+000	-3.10011E-001	-3.10048E-001	7	...........
	352	35.3	-3.19814E-001	-1.58849E-005	0.00000E+000	-3.20010E-001	-3.20452E-001	7	...........
	353	35.4	-3.29814E-001	-1.62022E-005	0.00000E+000	-3.30008E-001	-3.30256E-001	7	...........
	354	35.5	-3.39814E-001	-1.65246E-005	0.00000E+000	-3.40007E-001	-3.40459E-001	7	...........
	355	35.6	-3.49614E-001	-1.68703E-005	0.00000E+000	-3.50006E-001	-3.50263E-001	7	...........
	356	35.7	-3.60015E-001	-1.72244E-005	0.00000E+000	-3.60005E-001	-3.60067E-001	7	...........
	357	35.8	-3.69615E-001	-1.75935E-005	0.00000E+000	-3.70003E-001	-3.70070E-001	7	...........
	358	35.9	-3.80015E-001	-1.79793E-005	0.00000E+000	-3.80002E-001	-3.80074E-001	7	...........
	359	36	-3.89815E-001	-1.83802E-005	0.00000E+000	-3.90001E-001	-3.90278E-001	7	...........
	360	36.1	-3.99816E-001	-1.87944E-005	0.00000E+000	-3.99999E-001	-4.00081E-001	7	...........
	361	36.2	-4.09816E-001	-1.92236E-005	0.00000E+000	-4.09998E-001	-4.10085E-001	7	...........
	362	36.3	-4.19816E-001	-1.96662E-005	0.00000E+000	-4.19997E-001	-4.20289E-001	7	...........
	363	36.4	-4.30016E-001	-2.01339E-005	0.00000E+000	-4.29996E-001	-4.29893E-001	7	...........
	364	36.5	-4.39817E-001	-2.06066E-005	0.00000E+000	-4.39994E-001	-4.40496E-001	7	...........
	365	36.6	-4.49817E-001	-2.11043E-005	0.00000E+000	-4.49993E-001	-4.49900E-001	7	...........
	366	36.7	-4.59817E-001	-2.16170E-005	0.00000E+000	-4.59992E-001	-4.60304E-001	7	...........
	367	36.8	-4.69817E-001	-2.21398E-005	0.00000E+000	-4.69991E-001	-4.70107E-001	7	...........
	368	36.9	-4.80017E-001	-2.26893E-005	0.00000E+000	-4.79989E-001	-4.80111E-001	7	...........
	369	37	-4.89818E-001	-2.32472E-005	0.00000E+000	-4.89988E-001	-4.90115E-001	7	...........
	370	37.1	-4.99618E-001	-2.38267E-005	0.00000E+000	-4.99987E-001	-5.00118E-001	7	...........
	371	37.2	-5.09618E-001	-2.44330E-005	0.00000E+000	-5.09986E-001	-5.09922E-001	7	...........
	372	37.3	-5.19618E-001	-2.50443E-005	0.00000E+000	-5.19984E-001	-5.19926E-001	7	...........
	373	37.4	-5.29619E-001	-2.56823E-005	0.00000E+000	-5.29983E-001	-5.29930E-001	7	...........
	374	37.5	-5.39619E-001	-2.63488E-005	0.00000E+000	-5.39982E-001	-5.40133E-001	7	...........
	375	37.6	-5.49619E-001	-2.70252E-005	0.00000E+000	-5.49981E-001	-5.50137E-001	7	...........
	376	37.7	-5.59619E-001	-2.77401E-005	0.00000E+000	-5.59979E-001	-5.60141E-001	7	...........
	377	37.8	-5.69619E-001	-2.84582E-005	0.00000E+000	-5.69978E-001	-5.69944E-001	7	...........
	378	37.9	-5.79620E-001	-2.92215E-005	0.00000E+000	-5.79977E-001	-5.79948E-001	7	...........
	379	38	-5.89620E-001	-3.00082E-005	0.00000E+000	-5.89975E-001	-5.89952E-001	7	...........
	380	38.1	-5.99620E-001	-3.08132E-005	0.00000E+000	-5.99974E-001	-5.99955E-001	7	...........
	381	38.2	-6.09620E-001	-3.16651E-005	0.00000E+000	-6.09973E-001	-6.09959E-001	7	...........
	382	38.3	-6.19621E-001	-3.25653E-005	0.00000E+000	-6.20022E-001	-6.19963E-001	7	...........
	383	38.4	-6.29621E-001	-3.34538E-005	0.00000E+000	-6.30020E-001	-6.29966E-001	7	...........
	384	38.5	-6.39621E-001	-3.43942E-005	0.00000E+000	-6.40019E-001	-6.39970E-001	7	...........
	385	38.6	-6.49621E-001	-3.53662E-005	0.00000E+000	-6.50018E-001	-6.49974E-001	7	...........
	386	38.7	-6.59622E-001	-3.63951E-005	0.00000E+000	-6.60017E-001	-6.59777E-001	7	...........
	387	38.8	-6.69622E-001	-3.74490E-005	0.00000E+000	-6.70015E-001	-6.69981E-001	7	...........
	388	38.9	-6.79622E-001	-3.85530E-005	0.00000E+000	-6.80014E-001	-6.79985E-001	7	...........
	389	39	-6.89622E-001	-3.97088E-005	0.00000E+000	-6.90013E-001	-6.89989E-001	7	...........
	390	39.1	-6.99622E-001	-4.09097E-005	0.00000E+000	-7.00012E-001	-6.99792E-001	7	...........
	391	39.2	-7.09623E-001	-4.21774E-005	0.00000E+000	-7.10010E-001	-7.09996E-001	7	...........
	392	39.3	-7.19623E-001	-4.35035E-005	0.00000E+000	-7.20009E-001	-7.19800E-001	7	...........
	393	39.4	-7.29423E-001	-4.48865E-005	0.00000E+000	-7.30008E-001	-7.29803E-001	7	...........
	394	39.5	-7.39623E-001	-5.60731E-005	0.00000E+000	-7.40007E-001	-7.39607E-001	8	...........
	395	39.6	-7.49624E-001	-4.25502E-005	0.00000E+000	-7.50005E-001	-7.49811E-001	8	...........
	396	39.7	-7.59624E-001	-5.09978E-005	0.00000E+000	-7.60004E-001	-7.60015E-001	8	...........
	397	39.8	-7.69624E-001	-5.20496E-005	0.00000E+000	-7.70003E-001	-7.69818E-001	8	...........
	398	39.9	-7.79624E-001	-5.38861E-005	0.00000E+000	-7.80001E-001	-7.79822E-001	8	...........
	399	40	-7.89824E-001	-5.58394E-005	0.00000E+000	-7.90000E-001	-7.89625E-001	8	...........
	400	40.1	-7.99825E-001	-5.79095E-005	0.00000E+000	-7.99999E-001	-7.99829E-001	8	...........
	401	40.2	-7.90224E-001	-3.60725E-005	0.00000E+000	-7.90000E-001	-7.89825E-001	8	...........
	402	40.3	-7.80024E-001	-2.69734E-005	0.00000E+000	-7.80001E-001	-7.79822E-001	7	...........
	403	40.4	-7.70024E-001	-2.28647E-005	0.00000E+000	-7.70003E-001	-7.69818E-001	7	...........
	404	40.5	-7.60024E-001	-1.77438E-005	0.00000E+000	-7.60004E-001	-7.59814E-001	7	...........
	405	40.6	-7.50224E-001	-1.42113E-005	0.00000E+000	-7.50005E-001	-7.49811E-001	7	...........
	406	40.7	-7.40023E-001	-1.12667E-005	0.00000E+000	-7.40007E-001	-7.39807E-001	7	...........
	407	40.8	-7.30023E-001	-8.78312E-006	0.00000E+000	-7.30008E-001	-7.29803E-001	7	...........
	408	40.9	-7.20223E-001	-6.69035E-006	0.00000E+000	-7.20009E-001	-7.20000E-001	7	...........
	409	41	-7.10023E-001	-4.88485E-006	0.00000E+000	-7.10010E-001	-7.09996E-001	7	...........
	410	41.1	-7.00022E-001	-3.32654E-006	0.00000E+000	-7.00012E-001	-6.99792E-001	7	...........
	411	41.2	-6.90022E-001	-1.97199E-006	0.00000E+000	-6.90013E-001	-6.89789E-001	7	...........
	412	41.3	-6.80222E-001	-7.62759E-007	0.00000E+000	-6.80014E-001	-6.79785E-001	7	...........
	413	41.4	-6.70222E-001	2.86135E-007	0.00000E+000	-6.70015E-001	-6.69981E-001	7	...........
	414	41.5	-6.60022E-001	1.22647E-006	0.00000E+000	-6.60017E-001	-6.59777E-001	7	...........
	415	41.6	-6.50021E-001	2.05823E-006	0.00000E+000	-6.50018E-001	-6.50174E-001	7	...........
	416	41.7	-6.40021E-001	2.79313E-006	0.00000E+000	-6.40019E-001	-6.39970E-001	7	...........
[...]
	740	74.1	-6.00220E-001	5.26003E-006	0.00000E+000	-5.99974E-001	-5.99955E-001	7	...........
	741	74.2	-5.90220E-001	5.67424E-006	0.00000E+000	-5.89975E-001	-5.90152E-001	7	...........
	742	74.3	-5.80220E-001	6.06675E-006	0.00000E+000	-5.79977E-001	-5.79948E-001	7	...........
	743	74.4	-5.70219E-001	6.41081E-006	0.00000E+000	-5.69978E-001	-5.69944E-001	7	...........
	744	74.5	-5.60219E-001	6.71646E-006	0.00000E+000	-5.59979E-001	-5.59941E-001	7	...........
	745	74.6	-5.50019E-001	7.01209E-006	0.00000E+000	-5.49981E-001	-5.49937E-001	7	...........
	746	74.7	-5.40019E-001	7.26429E-006	0.00000E+000	-5.39982E-001	-5.39933E-001	7	...........
	747	74.8	-5.30219E-001	7.50313E-006	0.00000E+000	-5.29983E-001	-5.29930E-001	7	...........
	748	74.9	-5.20018E-001	7.72026E-006	0.00000E+000	-5.19984E-001	-5.19926E-001	7	...........
	749	75	-5.10218E-001	7.91066E-006	0.00000E+000	-5.09986E-001	-5.09922E-001	7	...........
	750	75.1	-5.00018E-001	8.09271E-006	0.00000E+000	-4.99987E-001	-4.99918E-001	7	...........
	751	75.2	-4.90218E-001	8.25640E-006	0.00000E+000	-4.89988E-001	-4.89915E-001	7	...........
	752	75.3	-4.80017E-001	8.40504E-006	0.00000E+000	-4.79989E-001	-4.79911E-001	7	...........
	753	75.4	-4.70017E-001	8.54367E-006	0.00000E+000	-4.69991E-001	-4.69907E-001	7	...........
	754	75.5	-4.60217E-001	8.66560E-006	0.00000E+000	-4.59992E-001	-4.60304E-001	7	...........
	755	75.6	-4.50217E-001	8.79086E-006	0.00000E+000	-4.49993E-001	-4.50100E-001	7	...........
	756	75.7	-4.40016E-001	8.89275E-006	0.00000E+000	-4.39994E-001	-4.40096E-001	7	...........
	757	75.8	-4.30016E-001	8.98962E-006	0.00000E+000	-4.29996E-001	-4.30093E-001	7	...........
	758	75.9	-4.20216E-001	9.08315E-006	0.00000E+000	-4.19997E-001	-4.20089E-001	7	...........
	759	76	-4.10216E-001	9.16165E-006	0.00000E+000	-4.09998E-001	-4.10085E-001	7	...........
	760	76.1	-4.00416E-001	9.23848E-006	0.00000E+000	-3.99999E-001	-4.00081E-001	7	...........
	761	76.2	-3.90215E-001	9.30696E-006	0.00000E+000	-3.90001E-001	-3.90078E-001	7	...........
	762	76.3	-3.80215E-001	9.37210E-006	0.00000E+000	-3.80002E-001	-3.80074E-001	7	...........
	763	76.4	-3.70215E-001	9.43223E-006	0.00000E+000	-3.70003E-001	-3.70270E-001	7	...........
	764	76.5	-3.60215E-001	9.47899E-006	0.00000E+000	-3.60005E-001	-3.60067E-001	7	...........
	765	76.6	-3.50214E-001	9.52910E-006	0.00000E+000	-3.50006E-001	-3.50063E-001	7	...........
	766	76.7	-3.40414E-001	9.56918E-006	0.00000E+000	-3.40007E-001	-3.40259E-001	7	...........
	767	76.8	-3.30214E-001	9.60259E-006	0.00000E+000	-3.30008E-001	-3.30056E-001	7	...........
	768	76.9	-3.20414E-001	9.63933E-006	0.00000E+000	-3.20010E-001	-3.20252E-001	7	...........
	769	77	-3.10414E-001	9.66438E-006	0.00000E+000	-3.10011E-001	-3.10248E-001	7	...........
	770	77.1	-3.00413E-001	9.69278E-006	0.00000E+000	-3.00012E-001	-3.00245E-001	7	...........
	771	77.2	-2.90213E-001	9.71616E-006	0.00000E+000	-2.90013E-001	-2.90241E-001	7	...........
	772	77.3	-2.80213E-001	9.72952E-006	0.00000E+000	-2.80015E-001	-2.80237E-001	7	...........
	773	77.4	-2.70413E-001	9.74957E-006	0.00000E+000	-2.70016E-001	-2.70233E-001	7	...........
	774	77.5	-2.60412E-001	9.76126E-006	0.00000E+000	-2.60017E-001	-2.60430E-001	7	...........
	775	77.6	-2.50412E-001	9.77295E-006	0.00000E+000	-2.50018E-001	-2.50426E-001	7	...........
	776	77.7	-2.40212E-001	9.78798E-006	0.00000E+000	-2.40020E-001	-2.40222E-001	7	...........
	777	77.8	-2.30412E-001	9.78965E-006	0.00000E+000	-2.30021E-001	-2.30219E-001	7	...........
	778	77.9	-2.20411E-001	9.80635E-006	0.00000E+000	-2.20022E-001	-2.20415E-001	7	...........
	779	78	-2.10211E-001	9.83308E-006	0.00000E+000	-2.09973E-001	-2.10211E-001	7	...........
	780	78.1	-2.00611E-001	9.82974E-006	0.00000E+000	-1.99975E-001	-2.00208E-001	7	...........
	781	78.2	-1.90411E-001	9.84477E-006	0.00000E+000	-1.89976E-001	-1.90204E-001	7	...........
	782	78.3	-1.80411E-001	9.85312E-006	0.00000E+000	-1.79977E-001	-1.80200E-001	7	...........
	783	78.4	-1.70210E-001	9.86982E-006	0.00000E+000	-1.69979E-001	-1.70397E-001	7	...........
	784	78.5	-1.60410E-001	9.88485E-006	0.00000E+000	-1.59980E-001	-1.60393E-001	7	...........
	785	78.6	-1.50410E-001	9.90156E-006	0.00000E+000	-1.49981E-001	-1.50389E-001	7	...........
	786	78.7	-1.40610E-001	9.92494E-006	0.00000E+000	-1.39982E-001	-1.40185E-001	7	...........
	787	78.8	-1.30409E-001	9.94665E-006	0.00000E+000	-1.29984E-001	-1.30382E-001	7	...........
	788	78.9	-1.20409E-001	9.97671E-006	0.00000E+000	-1.19985E-001	-1.20378E-001	7	...........
	789	79	-1.10409E-001	1.00018E-005	0.00000E+000	-1.09986E-001	-1.10374E-001	7	...........
	790	79.1	-1.00609E-001	1.00335E-005	0.00000E+000	-9.99874E-002	-1.00371E-001	7	...........
	791	79.2	-9.06085E-002	1.00736E-005	0.00000E+000	-8.99886E-002	-9.03670E-002	7	...........
	792	79.3	-8.04083E-002	1.01087E-005	0.00000E+000	-7.99899E-002	-8.03633E-002	7	...........
	793	79.4	-7.06081E-002	1.01571E-005	0.00000E+000	-6.99912E-002	-7.03596E-002	7	...........
	794	79.5	-6.06079E-002	1.02022E-005	0.00000E+000	-5.99924E-002	-6.03559E-002	7	...........
	795	79.6	-5.06076E-002	1.02490E-005	0.00000E+000	-4.99937E-002	-5.03522E-002	7	...........
	796	79.7	-4.06074E-002	1.03091E-005	0.00000E+000	-3.99949E-002	-4.05486E-002	7	...........
	797	79.8	-3.04072E-002	1.03642E-005	0.00000E+000	-2.99962E-002	-3.05449E-002	7	...........
	798	79.9	-2.04069E-002	1.04243E-005	0.00000E+000	-1.99975E-002	-2.03411E-002	7	...........
	799	80	-1.04067E-002	1.04945E-005	0.00000E+000	-9.99874E-003	-1.03374E-002	7	...........
	800	80.1	-4.06489E-004	1.05579E-005	0.00000E+000	0.00000E+000	-5.33797E-004	7	...........
	801	80.2	9.39373E-003	1.06381E-005	0.00000E+000	9.99874E-003	9.66997E-003	7	...........
	802	80.3	1.93940E-002	1.07133E-005	0.00000E+000	1.99975E-002	1.96737E-002	7	...........
	803	80.4	2.93942E-002	1.07951E-005	0.00000E+000	2.99962E-002	2.96774E-002	7	...........
	804	80.5	3.95944E-002	1.08820E-005	0.00000E+000	3.99949E-002	3.94810E-002	7	...........
	805	80.6	4.95946E-002	1.09621E-005	0.00000E+000	4.99937E-002	4.94847E-002	7	...........
	806	80.7	5.93949E-002	1.10607E-005	0.00000E+000	5.99924E-002	5.92883E-002	7	...........
	807	80.8	6.95951E-002	1.11559E-005	0.00000E+000	6.99912E-002	6.94921E-002	7	...........
	808	80.9	7.93953E-002	1.12544E-005	0.00000E+000	7.99899E-002	7.94958E-002	7	...........
	809	81	8.93956E-002	1.13580E-005	0.00000E+000	8.99886E-002	8.94995E-002	7	...........
	810	81.1	9.93958E-002	1.14582E-005	0.00000E+000	9.99874E-002	9.93031E-002	7	...........
	811	81.2	1.09196E-001	1.15701E-005	0.00000E+000	1.09986E-001	1.09307E-001	7	...........
	812	81.3	1.19196E-001	1.16820E-005	0.00000E+000	1.19985E-001	1.19310E-001	7	...........
	813	81.4	1.29396E-001	1.17939E-005	0.00000E+000	1.29984E-001	1.29314E-001	7	...........
	814	81.5	1.39197E-001	1.19175E-005	0.00000E+000	1.39982E-001	1.39518E-001	7	...........
	815	81.6	1.49397E-001	1.20394E-005	0.00000E+000	1.49981E-001	1.49522E-001	7	...........
	816	81.7	1.59397E-001	1.21664E-005	0.00000E+000	1.59980E-001	1.59325E-001	7	...........
	817	81.8	1.69397E-001	1.22983E-005	0.00000E+000	1.69979E-001	1.69329E-001	7	...........
	818	81.9	1.79398E-001	1.24252E-005	0.00000E+000	1.79977E-001	1.79333E-001	7	...........
	819	82	1.89198E-001	1.25856E-005	0.00000E+000	1.90026E-001	1.89336E-001	7	...........
	820	82.1	1.99398E-001	1.27159E-005	0.00000E+000	2.00025E-001	1.99340E-001	7	...........
	821	82.2	2.09398E-001	1.28578E-005	0.00000E+000	2.10023E-001	2.09544E-001	7	...........
	822	82.3	2.19399E-001	1.30132E-005	0.00000E+000	2.20022E-001	2.19347E-001	7	...........
	823	82.4	2.29399E-001	1.31652E-005	0.00000E+000	2.30021E-001	2.29351E-001	7	...........
	824	82.5	2.39399E-001	1.33305E-005	0.00000E+000	2.40020E-001	2.39355E-001	7	...........
	825	82.6	2.49399E-001	1.34908E-005	0.00000E+000	2.50018E-001	2.49359E-001	7	...........
	826	82.7	2.59199E-001	1.36595E-005	0.00000E+000	2.60017E-001	2.59362E-001	7	...........
	827	82.8	2.69400E-001	1.38382E-005	0.00000E+000	2.70016E-001	2.69366E-001	7	...........
	828	82.9	2.79400E-001	1.40136E-005	0.00000E+000	2.80015E-001	2.79370E-001	7	...........
	829	83	2.89400E-001	1.42040E-005	0.00000E+000	2.90013E-001	2.89373E-001	7	...........
	830	83.1	2.99200E-001	1.43944E-005	0.00000E+000	3.00012E-001	2.99377E-001	7	...........
	831	83.2	3.09201E-001	1.45882E-005	0.00000E+000	3.10011E-001	3.09381E-001	7	...........
	832	83.3	3.19201E-001	1.47936E-005	0.00000E+000	3.20010E-001	3.19384E-001	7	...........
	833	83.4	3.29401E-001	1.49974E-005	0.00000E+000	3.30008E-001	3.29388E-001	7	...........
	834	83.5	3.39401E-001	1.52162E-005	0.00000E+000	3.40007E-001	3.39392E-001	7	...........
	835	83.6	3.49201E-001	1.54366E-005	0.00000E+000	3.50006E-001	3.49195E-001	7	...........
	836	83.7	3.59202E-001	1.56638E-005	0.00000E+000	3.60005E-001	3.59399E-001	7	...........
	837	83.8	3.69202E-001	1.59026E-005	0.00000E+000	3.70003E-001	3.69403E-001	7	...........
	838	83.9	3.79202E-001	1.61415E-005	0.00000E+000	3.80002E-001	3.79007E-001	7	...........
	839	84	3.89202E-001	1.63870E-005	0.00000E+000	3.90001E-001	3.89210E-001	7	...........
	840	84.1	3.99203E-001	1.66442E-005	0.00000E+000	3.99999E-001	3.99214E-001	7	...........
	841	84.2	4.09203E-001	1.69014E-005	0.00000E+000	4.09998E-001	4.09218E-001	7	...........
	842	84.3	4.19203E-001	1.71770E-005	0.00000E+000	4.19997E-001	4.19221E-001	7	...........
	843	84.4	4.29203E-001	1.74509E-005	0.00000E+000	4.29996E-001	4.29225E-001	7	...........
	844	84.5	4.39203E-001	1.77382E-005	0.00000E+000	4.39994E-001	4.39229E-001	7	...........
	845	84.6	4.49204E-001	1.80322E-005	0.00000E+000	4.49993E-001	4.49032E-001	7	...........
	846	84.7	4.59204E-001	1.83278E-005	0.00000E+000	4.59992E-001	4.59036E-001	7	...........
	847	84.8	4.69204E-001	1.86334E-005	0.00000E+000	4.69991E-001	4.69040E-001	7	...........
	848	84.9	4.79204E-001	1.89458E-005	0.00000E+000	4.79989E-001	4.79043E-001	7	...........
	849	85	4.89005E-001	1.92631E-005	0.00000E+000	4.89988E-001	4.89047E-001	7	...........
	850	85.1	4.99205E-001	1.95888E-005	0.00000E+000	4.99987E-001	4.99251E-001	7	...........
	851	85.2	5.09205E-001	1.99145E-005	0.00000E+000	5.09986E-001	5.09055E-001	7	...........
	852	85.3	5.19205E-001	2.02519E-005	0.00000E+000	5.19984E-001	5.19258E-001	7	...........
	853	85.4	5.29206E-001	2.05943E-005	0.00000E+000	5.29983E-001	5.29262E-001	7	...........
	854	85.5	5.39206E-001	2.09383E-005	0.00000E+000	5.39982E-001	5.39266E-001	7	...........
	855	85.6	5.49206E-001	2.12974E-005	0.00000E+000	5.49981E-001	5.49069E-001	7	...........
	856	85.7	5.59206E-001	2.16549E-005	0.00000E+000	5.59979E-001	5.59073E-001	7	...........
	857	85.8	5.69206E-001	2.20240E-005	0.00000E+000	5.69978E-001	5.69077E-001	7	...........
	858	85.9	5.79007E-001	2.23998E-005	0.00000E+000	5.79977E-001	5.78880E-001	7	...........
	859	86	5.89007E-001	2.27789E-005	0.00000E+000	5.89975E-001	5.88884E-001	7	...........
	860	86.1	5.99207E-001	2.32048E-005	0.00000E+000	6.00024E-001	5.99088E-001	7	...........
	861	86.2	6.09007E-001	2.35906E-005	0.00000E+000	6.10023E-001	6.09092E-001	7	...........
	862	86.3	6.19008E-001	2.39965E-005	0.00000E+000	6.20022E-001	6.18895E-001	7	...........
	863	86.4	6.29008E-001	2.44274E-005	0.00000E+000	6.30020E-001	6.29099E-001	7	...........
	864	86.5	6.39208E-001	2.48650E-005	0.00000E+000	6.40019E-001	6.39103E-001	7	...........
	865	86.6	6.49208E-001	2.53176E-005	0.00000E+000	6.50018E-001	6.49106E-001	7	...........
	866	86.7	6.59009E-001	2.57819E-005	0.00000E+000	6.60017E-001	6.59110E-001	7	...........
	867	86.8	6.69009E-001	2.62613E-005	0.00000E+000	6.70015E-001	6.68914E-001	7	...........
	868	86.9	6.79209E-001	2.67707E-005	0.00000E+000	6.80014E-001	6.79117E-001	7	...........
	869	87	6.89009E-001	2.72851E-005	0.00000E+000	6.90013E-001	6.89121E-001	7	...........
	870	87.1	6.99009E-001	2.78313E-005	0.00000E+000	7.00012E-001	6.98925E-001	7	...........
	871	87.2	7.09010E-001	2.83942E-005	0.00000E+000	7.10010E-001	7.09129E-001	7	...........
	872	87.3	7.19010E-001	2.89821E-005	0.00000E+000	7.20009E-001	7.19132E-001	7	...........
	873	87.4	7.29210E-001	2.95984E-005	0.00000E+000	7.30008E-001	7.28936E-001	7	...........
	874	87.5	7.39210E-001	3.02397E-005	0.00000E+000	7.40007E-001	7.38940E-001	7	...........
	875	87.6	7.49011E-001	3.09212E-005	0.00000E+000	7.50005E-001	7.48943E-001	7	...........
	876	87.7	7.59011E-001	3.16244E-005	0.00000E+000	7.60004E-001	7.59147E-001	7	...........
	877	87.8	7.69011E-001	3.23609E-005	0.00000E+000	7.70003E-001	7.68951E-001	7	...........
	878	87.9	7.79011E-001	3.31493E-005	0.00000E+000	7.80001E-001	7.78954E-001	7	...........
	879	88	7.89011E-001	3.39643E-005	0.00000E+000	7.90000E-001	7.88958E-001	7	...........
	880	88.1	7.98812E-001	3.48195E-005	0.00000E+000	7.99999E-001	7.98762E-001	7	...........
CURVE4	TABLE
	Pt	T	Vf	Im	Vu	Sig	Ach	IERange	Over
	#	s	V vs. Ref.	A	V	V	V	#	bits
	881	88.2	7.89611E-001	2.13308E-005	0.00000E+000	7.90000E-001	7.88758E-001	7	...........
	882	88.3	7.79611E-001	1.68079E-005	0.00000E+000	7.80001E-001	7.78954E-001	7	...........
	883	88.4	7.69411E-001	1.36412E-005	0.00000E+000	7.70003E-001	7.68951E-001	7	...........
	884	88.5	7.59411E-001	1.11843E-005	0.00000E+000	7.60004E-001	7.58947E-001	7	...........
	885	88.6	7.49411E-001	9.21677E-006	0.00000E+000	7.50005E-001	7.49143E-001	7	...........
	886	88.7	7.39410E-001	7.58497E-006	0.00000E+000	7.40007E-001	7.38940E-001	7	...........
	887	88.8	7.29410E-001	6.21539E-006	0.00000E+000	7.30008E-001	7.29136E-001	7	...........
	888	88.9	7.19610E-001	5.02620E-006	0.00000E+000	7.20009E-001	7.18932E-001	7	...........
	889	89	7.09410E-001	3.99902E-006	0.00000E+000	7.10010E-001	7.08928E-001	7	...........
	890	89.1	6.99409E-001	3.08875E-006	0.00000E+000	7.00012E-001	6.99125E-001	7	...........
	891	89.2	6.89409E-001	2.27369E-006	0.00000E+000	6.90013E-001	6.89121E-001	7	...........
	892	89.3	6.79409E-001	1.55049E-006	0.00000E+000	6.80014E-001	6.78917E-001	7	...........
	893	89.4	6.69409E-001	8.85742E-007	0.00000E+000	6.70015E-001	6.69114E-001	7	...........
	894	89.5	6.59608E-001	2.86135E-007	0.00000E+000	6.60017E-001	6.59110E-001	7	...........
	895	89.6	6.49608E-001	-2.61695E-007	0.00000E+000	6.50018E-001	6.49106E-001	7	...........
	896	89.7	6.39608E-001	-7.76121E-007	0.00000E+000	6.40019E-001	6.39103E-001	7	...........
	897	89.8	6.29608E-001	-1.24378E-006	0.00000E+000	6.30020E-001	6.28899E-001	7	...........
	898	89.9	6.19608E-001	-1.68639E-006	0.00000E+000	6.20022E-001	6.19095E-001	7	...........
	899	90	6.09607E-001	-2.08891E-006	0.00000E+000	6.10023E-001	6.09092E-001	7	...........
	900	90.1	5.99607E-001	-2.47473E-006	0.00000E+000	6.00024E-001	5.99088E-001	7	...........
	901	90.2	5.89607E-001	-2.86389E-006	0.00000E+000	5.89975E-001	5.89084E-001	7	...........
	902	90.3	5.79607E-001	-3.18123E-006	0.00000E+000	5.79977E-001	5.79080E-001	7	...........
	903	90.4	5.69406E-001	-3.50191E-006	0.00000E+000	5.69978E-001	5.69277E-001	7	...........
	904	90.5	5.59606E-001	-3.80589E-006	0.00000E+000	5.59979E-001	5.59073E-001	7	...........
	905	90.6	5.49606E-001	-4.08815E-006	0.00000E+000	5.49981E-001	5.49269E-001	7	...........
	906	90.7	5.39406E-001	-4.36374E-006	0.00000E+000	5.39982E-001	5.39066E-001	7	...........
	907	90.8	5.29606E-001	-4.61594E-006	0.00000E+000	5.29983E-001	5.29062E-001	7	...........
	908	90.9	5.19605E-001	-4.85979E-006	0.00000E+000	5.19984E-001	5.19258E-001	7	...........
	909	91	5.09405E-001	-5.09028E-006	0.00000E+000	5.09986E-001	5.09055E-001	7	...........
	910	91.1	4.99605E-001	-5.30240E-006	0.00000E+000	4.99987E-001	4.99051E-001	7	...........
	911	91.2	4.89405E-001	-5.51118E-006	0.00000E+000	4.89988E-001	4.89247E-001	7	...........
	912	91.3	4.79604E-001	-5.70492E-006	0.00000E+000	4.79989E-001	4.79244E-001	7	...........
	913	91.4	4.69604E-001	-5.88530E-006	0.00000E+000	4.69991E-001	4.69040E-001	7	...........
	914	91.5	4.59604E-001	-6.05567E-006	0.00000E+000	4.59992E-001	4.59236E-001	7	...........
	915	91.6	4.49604E-001	-6.21267E-006	0.00000E+000	4.49993E-001	4.49232E-001	7	...........
	916	91.7	4.39804E-001	-6.36633E-006	0.00000E+000	4.39994E-001	4.39229E-001	7	...........
	917	91.8	4.29603E-001	-6.50829E-006	0.00000E+000	4.29996E-001	4.29225E-001	7	...........
	918	91.9	4.19603E-001	-6.63690E-006	0.00000E+000	4.19997E-001	4.19421E-001	7	...........
	919	92	4.09803E-001	-6.76718E-006	0.00000E+000	4.09998E-001	4.09418E-001	7	...........
	920	92.1	3.99803E-001	-6.88075E-006	0.00000E+000	3.99999E-001	3.99214E-001	7	...........
	921	92.2	3.89602E-001	-6.99767E-006	0.00000E+000	3.90001E-001	3.89210E-001	7	...........
	922	92.3	3.79802E-001	-7.09955E-006	0.00000E+000	3.80002E-001	3.79207E-001	7	...........
	923	92.4	3.69602E-001	-7.20310E-006	0.00000E+000	3.70003E-001	3.69403E-001	7	...........
	924	92.5	3.59802E-001	-7.30499E-006	0.00000E+000	3.60005E-001	3.59199E-001	7	...........
	925	92.6	3.49601E-001	-7.39685E-006	0.00000E+000	3.50006E-001	3.49396E-001	7	...........
	926	92.7	3.39601E-001	-7.48537E-006	0.00000E+000	3.40007E-001	3.39192E-001	7	...........
	927	92.8	3.29601E-001	-7.57556E-006	0.00000E+000	3.30008E-001	3.29388E-001	7	...........
	928	92.9	3.19801E-001	-7.66074E-006	0.00000E+000	3.20010E-001	3.19184E-001	7	...........
	929	93	3.10001E-001	-7.74592E-006	0.00000E+000	3.10011E-001	3.09381E-001	7	...........
	930	93.1	2.99600E-001	-7.82442E-006	0.00000E+000	3.00012E-001	2.99377E-001	7	...........
	931	93.2	2.89800E-001	-7.90793E-006	0.00000E+000	2.90013E-001	2.89373E-001	7	...........
	932	93.3	2.79800E-001	-7.98977E-006	0.00000E+000	2.80015E-001	2.79370E-001	7	...........
	933	93.4	2.69600E-001	-8.06493E-006	0.00000E+000	2.70016E-001	2.69366E-001	7	...........
	934	93.5	2.59799E-001	-8.15011E-006	0.00000E+000	2.60017E-001	2.59362E-001	7	...........
	935	93.6	2.49799E-001	-8.22527E-006	0.00000E+000	2.50018E-001	2.49359E-001	7	...........
	936	93.7	2.39799E-001	-8.30377E-006	0.00000E+000	2.40020E-001	2.39355E-001	7	...........
	937	93.8	2.29799E-001	-8.38895E-006	0.00000E+000	2.30021E-001	2.29151E-001	7	...........
	938	93.9	2.19799E-001	-8.46745E-006	0.00000E+000	2.20022E-001	2.19347E-001	7	...........
	939	94	2.09998E-001	-8.55096E-006	0.00000E+000	2.10023E-001	2.09544E-001	7	...........
	940	94.1	1.99798E-001	-8.62946E-006	0.00000E+000	2.00025E-001	1.99540E-001	7	...........
	941	94.2	1.89798E-001	-8.71298E-006	0.00000E+000	1.90026E-001	1.89536E-001	7	...........
	942	94.3	1.79598E-001	-8.81653E-006	0.00000E+000	1.79977E-001	1.79533E-001	7	...........
	943	94.4	1.69797E-001	-8.88167E-006	0.00000E+000	1.69979E-001	1.69329E-001	7	...........
	944	94.5	1.59997E-001	-8.96852E-006	0.00000E+000	1.59980E-001	1.59325E-001	7	...........
	945	94.6	1.49797E-001	-9.05537E-006	0.00000E+000	1.49981E-001	1.49322E-001	7	...........
	946	94.7	1.39797E-001	-9.13721E-006	0.00000E+000	1.39982E-001	1.39518E-001	7	...........
	947	94.8	1.29796E-001	-9.22740E-006	0.00000E+000	1.29984E-001	1.29714E-001	7	...........
	948	94.9	1.19796E-001	-9.31258E-006	0.00000E+000	1.19985E-001	1.19511E-001	7	...........
	949	95	1.09796E-001	-9.40277E-006	0.00000E+000	1.09986E-001	1.09307E-001	7	...........
	950	95.1	9.99958E-002	-9.49631E-006	0.00000E+000	9.99874E-002	9.95032E-002	7	...........
	951	95.2	8.97956E-002	-9.58149E-006	0.00000E+000	8.99886E-002	8.94995E-002	7	...........
	952	95.3	7.97953E-002	-9.67335E-006	0.00000E+000	7.99899E-002	7.94958E-002	7	...........
	953	95.4	6.97951E-002	-9.76521E-006	0.00000E+000	6.99912E-002	6.96922E-002	7	...........
	954	95.5	5.99949E-002	-9.85540E-006	0.00000E+000	5.99924E-002	5.92883E-002	7	...........
	955	95.6	4.99947E-002	-9.94726E-006	0.00000E+000	4.99937E-002	4.92846E-002	7	...........
	956	95.7	3.99944E-002	-1.00358E-005	0.00000E+000	3.99949E-002	3.94810E-002	7	...........
	957	95.8	2.99942E-002	-1.01276E-005	0.00000E+000	2.99962E-002	2.94773E-002	7	...........
	958	95.9	1.99940E-002	-1.02145E-005	0.00000E+000	1.99975E-002	1.94736E-002	7	...........
	959	96	9.99375E-003	-1.02997E-005	0.00000E+000	9.99874E-003	9.46990E-003	7	...........
	960	96.1	-2.06485E-004	-1.03899E-005	0.00000E+000	0.00000E+000	-5.33797E-004	7	...........