File: Data/CV_Steel_Disk_No_Material_2/CV_#5.DTA
EXPLAIN
TAG	CV
TITLE	LABEL	Cyclic Voltammetry	Test Identifier
DATE	LABEL	12-7-2017	Date
TIME	LABEL	17:23:13	Time
NOTES	NOTES	1	Notes...

PSTAT	PSTAT	IFC5000-01520	Potentiostat
VINIT	POTEN	0.00000E+000	F	Initial E (V)
VLIMIT1	POTEN	-8.00000E-001	F	Scan Limit 1 (V)
VLIMIT2	POTEN	8.00000E-001	F	Scan Limit 2 (V)
VFINAL	POTEN	0.00000E+000	F	Final E (V)
SCANRATE	QUANT	3.99999E+002	A Real Number
STEPSIZE	QUANT	1.00000E+001	Step Size (mV)
CYCLES	IQUANT	3	Cycles (#)
IMODE	SELECTOR	0	I/E Range Mode
IRANGE	QUANT	2.50000E+002	Max Current (mA)
AREA	QUANT	3.84800E-001	A Real Number
EQDELAY	QUANT	1.00000E+000	Equil. Time (s)
IRCOMP	SELECTOR	0	IRComp
PFCOR	QUANT	2.50000E+002	PF Corr. (ohm)
SAMPLINGMODE	SELECTOR	0	Sampling Mode
EOC	QUANT	0	Open Circuit (V)
SEQUENCER	TOGGLE	TRUE	Run as Sequence
PSTATMODEL	IQUANT	53	Pstat Model
PSTATSECTION	LABEL	IFC5000-01520	Pstat Section
PSTATSERIALNO	LABEL	01520	Pstat Serial Number
CTRLMODE	IQUANT	1	Control Mode
ELECTROMETER	IQUANT	0	RE=0 or CS=1
IESTAB	IQUANT	2	I/E Stability
CASPEED	IQUANT	4	Control Amp Speed
CONVENTION	IQUANT	1	Current Convention
ICHRANGE	IQUANT	2	Ich Range
ICHRANGEMODE	TOGGLE	F	Ich Auto Range
ICHOFFSETENABLE	TOGGLE	F	Ich Offset Enable
ICHOFFSET	QUANT	0	Ich Offset (V)
ICHFILTER	IQUANT	3	Ich Filter
VCHRANGE	IQUANT	2	Vch Range
VCHRANGEMODE	TOGGLE	F	Vch Auto Range
VCHOFFSETENABLE	TOGGLE	F	Vch Offset Enable
VCHOFFSET	QUANT	0	Vch Offset (V)
VCHFILTER	IQUANT	3	Vch Filter
IERANGELOWERLIMIT	IQUANT	7	I/E Range Lower Limit
IERANGEMODE	TOGGLE	T	I/E AutoRange
IERANGE	IQUANT	11	I/E Range
ACHSELECT	IQUANT	1	Ach Select
ACHRANGE	IQUANT	2	Ach Range
ACHOFFSETENABLE	TOGGLE	F	Ach Offset Enable
ACHOFFSET	QUANT	0	Ach Offset (V)
ACHFILTER	IQUANT	1	Ach Filter
CABLEID	IQUANT	14	Cable ID
DCCALDATE	LABEL	5-7-2017	DC Calibration Date
ACCALDATE	LABEL	12/3/2015	AC Calibration Date
FRAMEWORKVERSION	QUANT	7.01	Framework Version
INSTRUMENTVERSION	LABEL	4.00	Instrument Version
CURVE1	TABLE
	Pt	T	Vf	Im	Vu	Sig	Ach	IERange	Over
	#	s	V vs. Ref.	A	V	V	V	#	bits
	0	0.025	-3.65120E-004	-2.20028E-005	0.00000E+000	0.00000E+000	-5.33797E-004	11	...........
	1	0.05	-1.03651E-002	-7.21028E-006	0.00000E+000	-9.99874E-003	-1.03374E-002	10	...........
	2	0.075	-2.01651E-002	-9.05530E-006	0.00000E+000	-1.99975E-002	-2.03411E-002	9	...........
	3	0.1	-3.03651E-002	-1.03227E-005	0.00000E+000	-2.99962E-002	-3.03448E-002	8	...........
	4	0.125	-4.01651E-002	-1.16016E-005	0.00000E+000	-3.99949E-002	-4.03485E-002	7	...........
	5	0.15	-5.03651E-002	-1.27207E-005	0.00000E+000	-4.99937E-002	-5.03522E-002	7	...........
	6	0.175	-6.03651E-002	-1.36142E-005	0.00000E+000	-5.99924E-002	-6.05560E-002	7	...........
	7	0.2	-7.01651E-002	-1.45395E-005	0.00000E+000	-6.99912E-002	-7.03596E-002	7	...........
	8	0.225	-8.03651E-002	-1.53796E-005	0.00000E+000	-7.99899E-002	-8.03633E-002	7	...........
	9	0.25	-9.03651E-002	-1.58890E-005	0.00000E+000	-8.99886E-002	-9.01669E-002	7	...........
	10	0.275	-1.00165E-001	-1.69646E-005	0.00000E+000	-9.99874E-002	-1.00371E-001	7	...........
	11	0.3	-1.10165E-001	-1.75993E-005	0.00000E+000	-1.09986E-001	-1.10374E-001	7	...........
	12	0.325	-1.20365E-001	-1.84043E-005	0.00000E+000	-1.19985E-001	-1.20378E-001	7	...........
	13	0.35	-1.30165E-001	-1.92644E-005	0.00000E+000	-1.29984E-001	-1.30382E-001	7	...........
	14	0.375	-1.40165E-001	-1.99041E-005	0.00000E+000	-1.39982E-001	-1.40385E-001	7	...........
	15	0.4	-1.50165E-001	-2.05822E-005	0.00000E+000	-1.49981E-001	-1.50189E-001	7	...........
	16	0.425	-1.60165E-001	-2.12670E-005	0.00000E+000	-1.59980E-001	-1.60393E-001	7	...........
	17	0.45	-1.70365E-001	-2.21522E-005	0.00000E+000	-1.69979E-001	-1.70197E-001	7	...........
	18	0.475	-1.80365E-001	-2.28002E-005	0.00000E+000	-1.79977E-001	-1.80200E-001	7	...........
	19	0.5	-1.90165E-001	-2.34265E-005	0.00000E+000	-1.89976E-001	-1.90204E-001	7	...........
	20	0.525	-2.00165E-001	-2.42884E-005	0.00000E+000	-1.99975E-001	-2.00408E-001	7	...........
	21	0.55	-2.10165E-001	-2.49381E-005	0.00000E+000	-2.10023E-001	-2.10411E-001	7	...........
	22	0.575	-2.20165E-001	-2.57331E-005	0.00000E+000	-2.20022E-001	-2.20615E-001	7	...........
	23	0.6	-2.30365E-001	-2.64479E-005	0.00000E+000	-2.30021E-001	-2.30019E-001	7	...........
	24	0.625	-2.40165E-001	-2.70826E-005	0.00000E+000	-2.40020E-001	-2.40222E-001	7	...........
	25	0.65	-2.50365E-001	-2.78575E-005	0.00000E+000	-2.50018E-001	-2.50426E-001	7	...........
	26	0.675	-2.60365E-001	-2.85306E-005	0.00000E+000	-2.60017E-001	-2.60230E-001	7	...........
	27	0.7	-2.70365E-001	-2.92572E-005	0.00000E+000	-2.70016E-001	-2.70434E-001	7	...........
	28	0.725	-2.80365E-001	-3.00154E-005	0.00000E+000	-2.80015E-001	-2.80037E-001	7	...........
	29	0.75	-2.90165E-001	-3.07319E-005	0.00000E+000	-2.90013E-001	-2.90441E-001	7	...........
	30	0.775	-3.00165E-001	-3.16956E-005	0.00000E+000	-3.00012E-001	-3.00045E-001	7	...........
	31	0.8	-3.09965E-001	-3.26844E-005	0.00000E+000	-3.10011E-001	-3.10248E-001	7	...........
	32	0.825	-3.20165E-001	-3.32122E-005	0.00000E+000	-3.20010E-001	-3.20252E-001	7	...........
	33	0.85	-3.30165E-001	-3.41608E-005	0.00000E+000	-3.30008E-001	-3.30256E-001	7	...........
	34	0.875	-3.40165E-001	-3.51011E-005	0.00000E+000	-3.40007E-001	-3.40059E-001	7	...........
	35	0.9	-3.50165E-001	-3.58694E-005	0.00000E+000	-3.50006E-001	-3.50063E-001	7	...........
	36	0.925	-3.60165E-001	-3.68047E-005	0.00000E+000	-3.60005E-001	-3.60067E-001	7	...........
	37	0.95	-3.70165E-001	-3.77217E-005	0.00000E+000	-3.70003E-001	-3.70270E-001	7	...........
	38	0.975	-3.80165E-001	-3.88206E-005	0.00000E+000	-3.80002E-001	-3.80074E-001	7	...........
	39	1	-3.89965E-001	-3.97559E-005	0.00000E+000	-3.90001E-001	-3.90278E-001	7	...........
	40	1.025	-4.00165E-001	-4.08315E-005	0.00000E+000	-3.99999E-001	-4.00282E-001	7	...........
	41	1.05	-4.09965E-001	-4.17635E-005	0.00000E+000	-4.09998E-001	-4.10085E-001	7	...........
	42	1.075	-4.19965E-001	-4.29109E-005	0.00000E+000	-4.19997E-001	-4.20089E-001	7	...........
	43	1.1	-4.29965E-001	-4.40366E-005	0.00000E+000	-4.29996E-001	-4.30093E-001	7	...........
	44	1.125	-4.39965E-001	-4.51824E-005	0.00000E+000	-4.39994E-001	-4.40096E-001	7	...........
	45	1.15	-4.49965E-001	-4.63831E-005	0.00000E+000	-4.49993E-001	-4.50300E-001	8	...........
	46	1.175	-4.60165E-001	-4.76686E-005	0.00000E+000	-4.59992E-001	-4.60104E-001	8	...........
	47	1.2	-4.69965E-001	-4.85368E-005	0.00000E+000	-4.69991E-001	-4.70107E-001	8	...........
	48	1.225	-4.79965E-001	-5.00393E-005	0.00000E+000	-4.79989E-001	-4.79911E-001	8	...........
	49	1.25	-4.89965E-001	-5.12914E-005	0.00000E+000	-4.89988E-001	-4.89915E-001	8	...........
	50	1.275	-5.00165E-001	-5.23765E-005	0.00000E+000	-4.99987E-001	-5.00118E-001	8	...........
	51	1.3	-5.09965E-001	-5.41963E-005	0.00000E+000	-5.09986E-001	-5.10122E-001	8	...........
	52	1.325	-5.19965E-001	-5.53649E-005	0.00000E+000	-5.19984E-001	-5.19926E-001	8	...........
	53	1.35	-5.29965E-001	-5.66003E-005	0.00000E+000	-5.29983E-001	-5.29930E-001	8	...........
	54	1.375	-5.39965E-001	-5.82865E-005	0.00000E+000	-5.39982E-001	-5.40133E-001	8	...........
	55	1.4	-5.49965E-001	-5.97389E-005	0.00000E+000	-5.49981E-001	-5.50137E-001	8	...........
	56	1.425	-5.59965E-001	-6.10578E-005	0.00000E+000	-5.59979E-001	-5.59941E-001	8	...........
	57	1.45	-5.70165E-001	-6.30778E-005	0.00000E+000	-5.69978E-001	-5.69944E-001	8	...........
	58	1.475	-5.79965E-001	-6.43967E-005	0.00000E+000	-5.79977E-001	-5.79948E-001	8	...........
	59	1.5	-5.89965E-001	-6.65837E-005	0.00000E+000	-5.89975E-001	-5.89752E-001	8	...........
	60	1.525	-5.99965E-001	-6.79694E-005	0.00000E+000	-5.99974E-001	-5.99955E-001	8	...........
	61	1.55	-6.09965E-001	-6.99727E-005	0.00000E+000	-6.10023E-001	-6.10159E-001	8	...........
	62	1.575	-6.19965E-001	-7.15587E-005	0.00000E+000	-6.20022E-001	-6.19963E-001	8	...........
	63	1.6	-6.29765E-001	-7.35955E-005	0.00000E+000	-6.30020E-001	-6.29966E-001	8	...........
	64	1.625	-6.39765E-001	-7.54820E-005	0.00000E+000	-6.40019E-001	-6.39970E-001	8	...........
	65	1.65	-6.49965E-001	-7.73017E-005	0.00000E+000	-6.50018E-001	-6.49974E-001	8	...........
	66	1.675	-6.59965E-001	-7.98059E-005	0.00000E+000	-6.60017E-001	-6.59978E-001	8	...........
	67	1.7	-6.69965E-001	-8.20096E-005	0.00000E+000	-6.70015E-001	-6.69981E-001	8	...........
	68	1.725	-6.79965E-001	-8.42133E-005	0.00000E+000	-6.80014E-001	-6.79985E-001	8	...........
	69	1.75	-6.89965E-001	-8.62834E-005	0.00000E+000	-6.90013E-001	-6.89989E-001	8	...........
	70	1.775	-6.99965E-001	-8.89880E-005	0.00000E+000	-7.00012E-001	-6.99992E-001	8	...........
	71	1.8	-7.09965E-001	-9.13419E-005	0.00000E+000	-7.10010E-001	-7.09996E-001	8	...........
	72	1.825	-7.19965E-001	-9.39129E-005	0.00000E+000	-7.20009E-001	-7.20000E-001	8	...........
	73	1.85	-7.29765E-001	-9.66341E-005	0.00000E+000	-7.30008E-001	-7.30003E-001	8	...........
	74	1.875	-7.39765E-001	-9.94555E-005	0.00000E+000	-7.40007E-001	-7.39807E-001	8	...........
	75	1.9	-7.49765E-001	-1.02193E-004	0.00000E+000	-7.50005E-001	-7.50011E-001	8	...........
	76	1.925	-7.59765E-001	-1.04915E-004	0.00000E+000	-7.60004E-001	-7.59814E-001	8	...........
	77	1.95	-7.69565E-001	-1.08337E-004	0.00000E+000	-7.70003E-001	-7.70018E-001	8	...........
	78	1.975	-7.79965E-001	-1.11693E-004	0.00000E+000	-7.80001E-001	-7.80022E-001	8	...........
	79	2	-7.89765E-001	-1.14948E-004	0.00000E+000	-7.90000E-001	-7.89825E-001	8	...........
	80	2.025	-7.99965E-001	-1.18638E-004	0.00000E+000	-7.99999E-001	-7.99829E-001	8	...........
	81	2.05	-7.89765E-001	-9.06407E-005	0.00000E+000	-7.90000E-001	-7.89625E-001	8	...........
	82	2.075	-7.79965E-001	-7.12582E-005	0.00000E+000	-7.80001E-001	-7.79822E-001	8	...........
	83	2.1	-7.69765E-001	-5.67339E-005	0.00000E+000	-7.70003E-001	-7.69818E-001	8	...........
	84	2.125	-7.59965E-001	-4.52646E-005	0.00000E+000	-7.60004E-001	-7.59814E-001	8	...........
	85	2.15	-7.49765E-001	-3.58321E-005	0.00000E+000	-7.50005E-001	-7.50011E-001	8	...........
	86	2.175	-7.39765E-001	-2.79811E-005	0.00000E+000	-7.40007E-001	-7.39807E-001	7	...........
	87	2.2	-7.29765E-001	-2.11016E-005	0.00000E+000	-7.30008E-001	-7.30003E-001	7	...........
	88	2.225	-7.19765E-001	-1.55032E-005	0.00000E+000	-7.20009E-001	-7.20000E-001	7	...........
	89	2.25	-7.09965E-001	-1.04659E-005	0.00000E+000	-7.10010E-001	-7.09796E-001	7	...........
	90	2.275	-6.99965E-001	-6.33889E-006	0.00000E+000	-7.00012E-001	-6.99792E-001	7	...........
	91	2.3	-6.89965E-001	-2.58097E-006	0.00000E+000	-6.90013E-001	-6.89789E-001	7	...........
	92	2.325	-6.79965E-001	8.79652E-007	0.00000E+000	-6.80014E-001	-6.79985E-001	7	...........
	93	2.35	-6.69965E-001	3.46176E-006	0.00000E+000	-6.70015E-001	-6.69981E-001	7	...........
	94	2.375	-6.59765E-001	6.15577E-006	0.00000E+000	-6.60017E-001	-6.60178E-001	7	...........
	95	2.4	-6.49965E-001	8.15999E-006	0.00000E+000	-6.50018E-001	-6.49974E-001	7	...........
	96	2.425	-6.39965E-001	1.01926E-005	0.00000E+000	-6.40019E-001	-6.39970E-001	7	...........
	97	2.45	-6.29965E-001	1.17993E-005	0.00000E+000	-6.30020E-001	-6.30167E-001	7	...........
	98	2.475	-6.19965E-001	1.33175E-005	0.00000E+000	-6.20022E-001	-6.19763E-001	7	...........
	99	2.5	-6.09965E-001	1.45902E-005	0.00000E+000	-6.10023E-001	-6.09959E-001	7	...........
	100	2.525	-5.99965E-001	1.58779E-005	0.00000E+000	-5.99974E-001	-5.99955E-001	7	...........
	101	2.55	-5.89765E-001	1.67314E-005	0.00000E+000	-5.89975E-001	-5.89952E-001	7	...........
	102	2.575	-5.79965E-001	1.76233E-005	0.00000E+000	-5.79977E-001	-5.79948E-001	7	...........
	103	2.6	-5.69765E-001	1.83331E-005	0.00000E+000	-5.69978E-001	-5.69944E-001	7	...........
	104	2.625	-5.59965E-001	1.88993E-005	0.00000E+000	-5.59979E-001	-5.60141E-001	7	...........
	105	2.65	-5.49965E-001	1.97945E-005	0.00000E+000	-5.49981E-001	-5.49937E-001	7	...........
	106	2.675	-5.39965E-001	1.99983E-005	0.00000E+000	-5.39982E-001	-5.40133E-001	7	...........
	107	2.7	-5.29765E-001	2.08450E-005	0.00000E+000	-5.29983E-001	-5.29930E-001	7	...........
	108	2.725	-5.19965E-001	2.12158E-005	0.00000E+000	-5.19984E-001	-5.20126E-001	7	...........
	109	2.75	-5.10165E-001	2.13845E-005	0.00000E+000	-5.09986E-001	-5.09922E-001	7	...........
	110	2.775	-5.00165E-001	2.16501E-005	0.00000E+000	-4.99987E-001	-5.00118E-001	7	...........
	111	2.8	-4.89965E-001	2.21177E-005	0.00000E+000	-4.89988E-001	-4.90115E-001	7	...........
	112	2.825	-4.79965E-001	2.22196E-005	0.00000E+000	-4.79989E-001	-4.80111E-001	7	...........
	113	2.85	-4.70165E-001	2.22714E-005	0.00000E+000	-4.69991E-001	-4.70107E-001	7	...........
	114	2.875	-4.59965E-001	2.25921E-005	0.00000E+000	-4.59992E-001	-4.60104E-001	7	...........
	115	2.9	-4.49965E-001	2.28676E-005	0.00000E+000	-4.49993E-001	-4.50300E-001	7	...........
	116	2.925	-4.39965E-001	2.28893E-005	0.00000E+000	-4.39994E-001	-4.40096E-001	7	...........
	117	2.95	-4.29965E-001	2.32451E-005	0.00000E+000	-4.29996E-001	-4.30093E-001	7	...........
	118	2.975	-4.20165E-001	2.32434E-005	0.00000E+000	-4.19997E-001	-4.20089E-001	7	...........
	119	3	-4.10165E-001	2.33269E-005	0.00000E+000	-4.09998E-001	-4.10085E-001	7	...........
	120	3.025	-4.00165E-001	2.34188E-005	0.00000E+000	-3.99999E-001	-4.00081E-001	7	...........
	121	3.05	-3.89965E-001	2.34205E-005	0.00000E+000	-3.90001E-001	-3.90078E-001	7	...........
	122	3.075	-3.80165E-001	2.34472E-005	0.00000E+000	-3.80002E-001	-3.80074E-001	7	...........
	123	3.1	-3.70165E-001	2.34839E-005	0.00000E+000	-3.70003E-001	-3.70070E-001	7	...........
	124	3.125	-3.60165E-001	2.34956E-005	0.00000E+000	-3.60005E-001	-3.60267E-001	7	...........
	125	3.15	-3.49965E-001	2.35992E-005	0.00000E+000	-3.50006E-001	-3.50263E-001	7	...........
	126	3.175	-3.40165E-001	2.35975E-005	0.00000E+000	-3.40007E-001	-3.40259E-001	7	...........
	127	3.2	-3.29965E-001	2.35942E-005	0.00000E+000	-3.30008E-001	-3.30256E-001	7	...........
	128	3.225	-3.20165E-001	2.35841E-005	0.00000E+000	-3.20010E-001	-3.20252E-001	7	...........
	129	3.25	-3.09965E-001	2.34589E-005	0.00000E+000	-3.10011E-001	-3.10248E-001	7	...........
	130	3.275	-3.00165E-001	2.34004E-005	0.00000E+000	-3.00012E-001	-3.00245E-001	7	...........
	131	3.3	-2.90165E-001	2.35274E-005	0.00000E+000	-2.90013E-001	-2.90241E-001	7	...........
	132	3.325	-2.80165E-001	2.34906E-005	0.00000E+000	-2.80015E-001	-2.80237E-001	7	...........
	133	3.35	-2.70165E-001	2.34205E-005	0.00000E+000	-2.70016E-001	-2.70434E-001	7	...........
	134	3.375	-2.60165E-001	2.34305E-005	0.00000E+000	-2.60017E-001	-2.60230E-001	7	...........
	135	3.4	-2.50165E-001	2.35190E-005	0.00000E+000	-2.50018E-001	-2.50226E-001	7	...........
	136	3.425	-2.40165E-001	2.35608E-005	0.00000E+000	-2.40020E-001	-2.40222E-001	7	...........
	137	3.45	-2.30165E-001	2.34088E-005	0.00000E+000	-2.30021E-001	-2.30419E-001	7	...........
	138	3.475	-2.20365E-001	2.34438E-005	0.00000E+000	-2.20022E-001	-2.20415E-001	7	...........
	139	3.5	-2.10165E-001	2.32985E-005	0.00000E+000	-2.10023E-001	-2.10211E-001	7	...........
	140	3.525	-2.00165E-001	2.34539E-005	0.00000E+000	-1.99975E-001	-2.00408E-001	7	...........
	141	3.55	-1.90165E-001	2.32434E-005	0.00000E+000	-1.89976E-001	-1.90204E-001	7	...........
	142	3.575	-1.80365E-001	2.32401E-005	0.00000E+000	-1.79977E-001	-1.80400E-001	7	...........
	143	3.6	-1.70165E-001	2.32484E-005	0.00000E+000	-1.69979E-001	-1.70197E-001	7	...........
	144	3.625	-1.60365E-001	2.34205E-005	0.00000E+000	-1.59980E-001	-1.60193E-001	7	...........
	145	3.65	-1.50165E-001	2.34255E-005	0.00000E+000	-1.49981E-001	-1.50189E-001	7	...........
	146	3.675	-1.40165E-001	2.35140E-005	0.00000E+000	-1.39982E-001	-1.40385E-001	7	...........
	147	3.7	-1.30165E-001	2.33303E-005	0.00000E+000	-1.29984E-001	-1.30382E-001	7	...........
	148	3.725	-1.20165E-001	2.34138E-005	0.00000E+000	-1.19985E-001	-1.20378E-001	7	...........
	149	3.75	-1.10165E-001	2.31917E-005	0.00000E+000	-1.09986E-001	-1.10374E-001	7	...........
	150	3.775	-1.00165E-001	2.34990E-005	0.00000E+000	-9.99874E-002	-1.00171E-001	7	...........
	151	3.8	-9.03651E-002	2.34823E-005	0.00000E+000	-8.99886E-002	-9.05671E-002	7	...........
	152	3.825	-8.03651E-002	2.37762E-005	0.00000E+000	-7.99899E-002	-8.03633E-002	7	...........
	153	3.85	-7.03651E-002	2.37345E-005	0.00000E+000	-6.99912E-002	-7.05597E-002	7	...........
	154	3.875	-6.01651E-002	2.38130E-005	0.00000E+000	-5.99924E-002	-6.03559E-002	7	...........
	155	3.9	-5.03651E-002	2.38831E-005	0.00000E+000	-4.99937E-002	-5.03522E-002	7	...........
	156	3.925	-4.03651E-002	2.39867E-005	0.00000E+000	-3.99949E-002	-4.03485E-002	7	...........
	157	3.95	-3.01651E-002	2.40601E-005	0.00000E+000	-2.99962E-002	-3.03448E-002	7	...........
	158	3.975	-2.01651E-002	2.42188E-005	0.00000E+000	-1.99975E-002	-2.03411E-002	7	...........
	159	4	-1.05651E-002	2.41019E-005	0.00000E+000	-9.99874E-003	-1.03374E-002	7	...........
	160	4.025	-3.65120E-004	2.44710E-005	0.00000E+000	0.00000E+000	-5.33797E-004	7	...........
	161	4.05	9.63488E-003	2.47065E-005	0.00000E+000	9.99874E-003	9.46990E-003	7	...........
	162	4.075	1.94349E-002	2.48568E-005	0.00000E+000	1.99975E-002	1.94736E-002	7	...........
	163	4.1	2.96349E-002	2.49620E-005	0.00000E+000	2.99962E-002	2.94773E-002	7	...........
	164	4.125	3.96349E-002	2.51742E-005	0.00000E+000	3.99949E-002	3.94810E-002	7	...........
	165	4.15	4.96349E-002	2.53495E-005	0.00000E+000	4.99937E-002	4.94847E-002	7	...........
	166	4.175	5.96349E-002	2.56886E-005	0.00000E+000	5.99924E-002	5.94884E-002	7	...........
	167	4.2	6.96349E-002	2.57838E-005	0.00000E+000	6.99912E-002	6.96922E-002	7	...........
	168	4.225	7.94349E-002	2.61045E-005	0.00000E+000	7.99899E-002	7.94958E-002	7	...........
	169	4.25	8.96349E-002	2.63633E-005	0.00000E+000	8.99886E-002	8.94995E-002	7	...........
	170	4.275	9.96349E-002	2.64786E-005	0.00000E+000	9.99874E-002	9.93031E-002	7	...........
	171	4.3	1.09435E-001	2.67775E-005	0.00000E+000	1.09986E-001	1.09507E-001	7	...........
	172	4.325	1.19635E-001	2.69897E-005	0.00000E+000	1.19985E-001	1.19310E-001	7	...........
	173	4.35	1.29635E-001	2.73103E-005	0.00000E+000	1.29984E-001	1.29514E-001	7	...........
	174	4.375	1.39435E-001	2.75158E-005	0.00000E+000	1.39982E-001	1.39318E-001	7	...........
	175	4.4	1.49635E-001	2.76544E-005	0.00000E+000	1.49981E-001	1.49522E-001	7	...........
	176	4.425	1.59635E-001	2.79934E-005	0.00000E+000	1.59980E-001	1.59325E-001	7	...........
	177	4.45	1.69635E-001	2.83893E-005	0.00000E+000	1.69979E-001	1.69329E-001	7	...........
	178	4.475	1.79435E-001	2.86131E-005	0.00000E+000	1.79977E-001	1.79533E-001	7	...........
	179	4.5	1.89435E-001	2.90122E-005	0.00000E+000	1.89976E-001	1.89536E-001	7	...........
	180	4.525	1.99435E-001	2.94949E-005	0.00000E+000	1.99975E-001	1.99340E-001	7	...........
	181	4.55	2.09435E-001	2.98290E-005	0.00000E+000	2.10023E-001	2.09344E-001	7	...........
	182	4.575	2.19635E-001	3.00077E-005	0.00000E+000	2.20022E-001	2.19347E-001	7	...........
	183	4.6	2.29435E-001	3.04904E-005	0.00000E+000	2.30021E-001	2.29551E-001	7	...........
	184	4.625	2.39235E-001	3.08728E-005	0.00000E+000	2.40020E-001	2.39555E-001	7	...........
	185	4.65	2.49435E-001	3.13154E-005	0.00000E+000	2.50018E-001	2.49359E-001	7	...........
	186	4.675	2.59435E-001	3.15944E-005	0.00000E+000	2.60017E-001	2.59362E-001	7	...........
	187	4.7	2.69435E-001	3.20420E-005	0.00000E+000	2.70016E-001	2.69366E-001	7	...........
	188	4.725	2.79435E-001	3.24578E-005	0.00000E+000	2.80015E-001	2.79370E-001	7	...........
	189	4.75	2.89435E-001	3.29589E-005	0.00000E+000	2.90013E-001	2.89373E-001	7	...........
	190	4.775	2.99635E-001	3.31961E-005	0.00000E+000	3.00012E-001	2.99177E-001	7	...........
	191	4.8	3.09435E-001	3.37756E-005	0.00000E+000	3.10011E-001	3.09381E-001	7	...........
	192	4.825	3.19635E-001	3.43936E-005	0.00000E+000	3.20010E-001	3.19384E-001	7	...........
	193	4.85	3.29435E-001	3.47493E-005	0.00000E+000	3.30008E-001	3.29188E-001	7	...........
	194	4.875	3.39435E-001	3.51786E-005	0.00000E+000	3.40007E-001	3.39392E-001	7	...........
	195	4.9	3.49235E-001	3.58901E-005	0.00000E+000	3.50006E-001	3.49195E-001	7	...........
	196	4.925	3.59435E-001	3.64346E-005	0.00000E+000	3.60005E-001	3.59199E-001	7	...........
	197	4.95	3.69435E-001	3.69339E-005	0.00000E+000	3.70003E-001	3.69203E-001	7	...........
	198	4.975	3.79435E-001	3.75603E-005	0.00000E+000	3.80002E-001	3.79407E-001	7	...........
	199	5	3.89435E-001	3.81482E-005	0.00000E+000	3.90001E-001	3.89410E-001	7	...........
	200	5.025	3.99435E-001	3.89465E-005	0.00000E+000	3.99999E-001	3.99214E-001	7	...........
	201	5.05	4.09435E-001	3.93641E-005	0.00000E+000	4.09998E-001	4.09218E-001	7	...........
	202	5.075	4.19435E-001	4.01941E-005	0.00000E+000	4.19997E-001	4.19221E-001	7	...........
	203	5.1	4.29435E-001	4.06785E-005	0.00000E+000	4.29996E-001	4.29025E-001	7	...........
	204	5.125	4.39435E-001	4.13399E-005	0.00000E+000	4.39994E-001	4.39029E-001	7	...........
	205	5.15	4.49235E-001	4.20631E-005	0.00000E+000	4.49993E-001	4.49232E-001	7	...........
	206	5.175	4.59435E-001	4.26777E-005	0.00000E+000	4.59992E-001	4.59036E-001	7	...........
	207	5.2	4.69235E-001	4.34243E-005	0.00000E+000	4.69991E-001	4.69040E-001	7	...........
	208	5.225	4.79435E-001	4.40088E-005	0.00000E+000	4.79989E-001	4.79244E-001	7	...........
	209	5.25	4.89435E-001	4.47988E-005	0.00000E+000	4.89988E-001	4.89247E-001	7	...........
	210	5.275	4.99435E-001	4.54709E-005	0.00000E+000	4.99987E-001	4.99051E-001	8	...........
	211	5.3	5.09235E-001	4.64726E-005	0.00000E+000	5.09986E-001	5.09055E-001	8	...........
	212	5.325	5.19235E-001	4.70069E-005	0.00000E+000	5.19984E-001	5.19058E-001	8	...........
	213	5.35	5.29235E-001	4.83758E-005	0.00000E+000	5.29983E-001	5.29262E-001	8	...........
	214	5.375	5.39235E-001	4.90436E-005	0.00000E+000	5.39982E-001	5.39266E-001	8	...........
	215	5.4	5.49235E-001	4.95945E-005	0.00000E+000	5.49981E-001	5.49069E-001	8	...........
	216	5.425	5.59235E-001	5.01788E-005	0.00000E+000	5.59979E-001	5.59073E-001	8	...........
	217	5.45	5.69435E-001	5.12306E-005	0.00000E+000	5.69978E-001	5.69077E-001	8	...........
	218	5.475	5.79435E-001	5.21321E-005	0.00000E+000	5.79977E-001	5.79080E-001	8	...........
	219	5.5	5.89235E-001	5.26663E-005	0.00000E+000	5.89975E-001	5.89084E-001	8	...........
	220	5.525	5.99035E-001	5.36012E-005	0.00000E+000	5.99974E-001	5.98888E-001	8	...........
	221	5.55	6.09435E-001	5.46864E-005	0.00000E+000	6.10023E-001	6.09092E-001	8	...........
	222	5.575	6.19235E-001	5.53709E-005	0.00000E+000	6.20022E-001	6.19095E-001	8	...........
	223	5.6	6.29235E-001	5.64393E-005	0.00000E+000	6.30020E-001	6.29099E-001	8	...........
	224	5.625	6.39235E-001	5.72908E-005	0.00000E+000	6.40019E-001	6.39103E-001	8	...........
	225	5.65	6.49235E-001	5.83926E-005	0.00000E+000	6.50018E-001	6.48906E-001	8	...........
	226	5.675	6.59435E-001	5.94611E-005	0.00000E+000	6.60017E-001	6.59110E-001	8	...........
	227	5.7	6.69435E-001	6.01956E-005	0.00000E+000	6.70015E-001	6.69114E-001	8	...........
	228	5.725	6.79235E-001	6.14811E-005	0.00000E+000	6.80014E-001	6.79117E-001	8	...........
	229	5.75	6.89235E-001	6.24327E-005	0.00000E+000	6.90013E-001	6.89121E-001	8	...........
	230	5.775	6.99235E-001	6.35847E-005	0.00000E+000	7.00012E-001	6.98925E-001	8	...........
	231	5.8	7.09235E-001	6.49536E-005	0.00000E+000	7.10010E-001	7.08928E-001	8	...........
	232	5.825	7.19235E-001	6.62057E-005	0.00000E+000	7.20009E-001	7.18932E-001	8	...........
	233	5.85	7.29235E-001	6.73577E-005	0.00000E+000	7.30008E-001	7.29136E-001	8	...........
	234	5.875	7.39235E-001	6.79587E-005	0.00000E+000	7.40007E-001	7.38940E-001	8	...........
	235	5.9	7.49235E-001	6.98285E-005	0.00000E+000	7.50005E-001	7.48743E-001	8	...........
	236	5.925	7.59235E-001	7.08302E-005	0.00000E+000	7.60004E-001	7.58947E-001	8	...........
	237	5.95	7.69435E-001	7.26332E-005	0.00000E+000	7.70003E-001	7.68951E-001	8	...........
	238	5.975	7.79235E-001	7.43360E-005	0.00000E+000	7.80001E-001	7.78954E-001	8	...........
	239	6	7.89035E-001	7.54713E-005	0.00000E+000	7.90000E-001	7.89158E-001	8	...........
	240	6.025	7.99235E-001	7.78586E-005	0.00000E+000	7.99999E-001	7.98962E-001	8	...........
CURVE2	TABLE
	Pt	T	Vf	Im	Vu	Sig	Ach	IERange	Over
	#	s	V vs. Ref.	A	V	V	V	#	bits
	241	6.05	7.89035E-001	5.73409E-005	0.00000E+000	7.90000E-001	7.88958E-001	8	...........
	242	6.075	7.79235E-001	4.44693E-005	0.00000E+000	7.80001E-001	7.78954E-001	8	...........
	243	6.1	7.69435E-001	3.59216E-005	0.00000E+000	7.70003E-001	7.68751E-001	8	...........
	244	6.125	7.59235E-001	2.93847E-005	0.00000E+000	7.60004E-001	7.58947E-001	7	...........
	245	6.15	7.49235E-001	2.36426E-005	0.00000E+000	7.50005E-001	7.49143E-001	7	...........
	246	6.175	7.39235E-001	1.92316E-005	0.00000E+000	7.40007E-001	7.38940E-001	7	...........
	247	6.2	7.29435E-001	1.53000E-005	0.00000E+000	7.30008E-001	7.28936E-001	7	...........
	248	6.225	7.19435E-001	1.23939E-005	0.00000E+000	7.20009E-001	7.19132E-001	7	...........
	249	6.25	7.09235E-001	9.58967E-006	0.00000E+000	7.10010E-001	7.08928E-001	7	...........
	250	6.275	6.99235E-001	6.92238E-006	0.00000E+000	7.00012E-001	6.99125E-001	7	...........
	251	6.3	6.89235E-001	4.94488E-006	0.00000E+000	6.90013E-001	6.89121E-001	7	...........
	252	6.325	6.79235E-001	3.16279E-006	0.00000E+000	6.80014E-001	6.79117E-001	7	...........
	253	6.35	6.69435E-001	1.27883E-006	0.00000E+000	6.70015E-001	6.69314E-001	7	...........
	254	6.375	6.59235E-001	-2.76116E-007	0.00000E+000	6.60017E-001	6.59110E-001	7	...........
	255	6.4	6.49435E-001	-1.65235E-006	0.00000E+000	6.50018E-001	6.49106E-001	7	...........
	256	6.425	6.39435E-001	-2.74131E-006	0.00000E+000	6.40019E-001	6.38903E-001	7	...........
	257	6.45	6.29235E-001	-4.10752E-006	0.00000E+000	6.30020E-001	6.28899E-001	7	...........
	258	6.475	6.19435E-001	-5.22654E-006	0.00000E+000	6.20022E-001	6.18895E-001	7	...........
	259	6.5	6.09435E-001	-6.24870E-006	0.00000E+000	6.10023E-001	6.09092E-001	7	...........
	260	6.525	5.99435E-001	-7.11218E-006	0.00000E+000	6.00024E-001	5.99288E-001	7	...........
	261	6.55	5.89435E-001	-8.00573E-006	0.00000E+000	5.89975E-001	5.89084E-001	7	...........
	262	6.575	5.79435E-001	-8.93602E-006	0.00000E+000	5.79977E-001	5.79080E-001	7	...........
	263	6.6	5.69235E-001	-9.56568E-006	0.00000E+000	5.69978E-001	5.69077E-001	7	...........
	264	6.625	5.59435E-001	-1.03490E-005	0.00000E+000	5.59979E-001	5.59273E-001	7	...........
	265	6.65	5.49235E-001	-1.09720E-005	0.00000E+000	5.49981E-001	5.49069E-001	7	...........
	266	6.675	5.39435E-001	-1.16334E-005	0.00000E+000	5.39982E-001	5.39266E-001	7	...........
	267	6.7	5.29435E-001	-1.21227E-005	0.00000E+000	5.29983E-001	5.29062E-001	7	...........
	268	6.725	5.19435E-001	-1.28092E-005	0.00000E+000	5.19984E-001	5.19258E-001	7	...........
	269	6.75	5.09435E-001	-1.32050E-005	0.00000E+000	5.09986E-001	5.09055E-001	7	...........
	270	6.775	4.99235E-001	-1.36510E-005	0.00000E+000	4.99987E-001	4.99251E-001	7	...........
	271	6.8	4.89235E-001	-1.42723E-005	0.00000E+000	4.89988E-001	4.89047E-001	7	...........
	272	6.825	4.79235E-001	-1.47817E-005	0.00000E+000	4.79989E-001	4.79043E-001	7	...........
	273	6.85	4.69235E-001	-1.49737E-005	0.00000E+000	4.69991E-001	4.69240E-001	7	...........
	274	6.875	4.59435E-001	-1.54497E-005	0.00000E+000	4.59992E-001	4.59236E-001	7	...........
	275	6.9	4.49235E-001	-1.57738E-005	0.00000E+000	4.49993E-001	4.49232E-001	7	...........
	276	6.925	4.39635E-001	-1.60711E-005	0.00000E+000	4.39994E-001	4.39229E-001	7	...........
	277	6.95	4.29435E-001	-1.62264E-005	0.00000E+000	4.29996E-001	4.29025E-001	7	...........
	278	6.975	4.19435E-001	-1.66907E-005	0.00000E+000	4.19997E-001	4.19221E-001	7	...........
	279	7	4.09435E-001	-1.70915E-005	0.00000E+000	4.09998E-001	4.09218E-001	7	...........
	280	7.025	3.99435E-001	-1.72368E-005	0.00000E+000	3.99999E-001	3.99214E-001	7	...........
	281	7.05	3.89435E-001	-1.72335E-005	0.00000E+000	3.90001E-001	3.89210E-001	7	...........
	282	7.075	3.79435E-001	-1.76644E-005	0.00000E+000	3.80002E-001	3.79407E-001	7	...........
	283	7.1	3.69435E-001	-1.78648E-005	0.00000E+000	3.70003E-001	3.69403E-001	7	...........
	284	7.125	3.59635E-001	-1.80151E-005	0.00000E+000	3.60005E-001	3.59399E-001	7	...........
	285	7.15	3.49435E-001	-1.83275E-005	0.00000E+000	3.50006E-001	3.49195E-001	7	...........
	286	7.175	3.39435E-001	-1.85012E-005	0.00000E+000	3.40007E-001	3.39192E-001	7	...........
	287	7.2	3.29435E-001	-1.87183E-005	0.00000E+000	3.30008E-001	3.29188E-001	7	...........
	288	7.225	3.19435E-001	-1.88703E-005	0.00000E+000	3.20010E-001	3.19585E-001	7	...........
	289	7.25	3.09635E-001	-1.89388E-005	0.00000E+000	3.10011E-001	3.09381E-001	7	...........
	290	7.275	2.99435E-001	-1.93079E-005	0.00000E+000	3.00012E-001	2.99177E-001	7	...........
	291	7.3	2.89435E-001	-1.93413E-005	0.00000E+000	2.90013E-001	2.89173E-001	7	...........
	292	7.325	2.79635E-001	-1.95784E-005	0.00000E+000	2.80015E-001	2.79370E-001	7	...........
	293	7.35	2.69635E-001	-1.96753E-005	0.00000E+000	2.70016E-001	2.69366E-001	7	...........
	294	7.375	2.59635E-001	-1.97354E-005	0.00000E+000	2.60017E-001	2.59362E-001	7	...........
	295	7.4	2.49635E-001	-2.00194E-005	0.00000E+000	2.50018E-001	2.49359E-001	7	...........
	296	7.425	2.39635E-001	-2.01096E-005	0.00000E+000	2.40020E-001	2.39155E-001	7	...........
	297	7.45	2.29635E-001	-2.02749E-005	0.00000E+000	2.30021E-001	2.29351E-001	7	...........
	298	7.475	2.19635E-001	-2.05622E-005	0.00000E+000	2.20022E-001	2.19548E-001	7	...........
	299	7.5	2.09635E-001	-2.03684E-005	0.00000E+000	2.10023E-001	2.09544E-001	7	...........
	300	7.525	1.99435E-001	-2.06540E-005	0.00000E+000	2.00025E-001	1.99540E-001	7	...........
	301	7.55	1.89435E-001	-2.09179E-005	0.00000E+000	1.90026E-001	1.89336E-001	7	...........
	302	7.575	1.79635E-001	-2.10783E-005	0.00000E+000	1.79977E-001	1.79333E-001	7	...........
	303	7.6	1.69435E-001	-2.10682E-005	0.00000E+000	1.69979E-001	1.69329E-001	7	...........
	304	7.625	1.59435E-001	-2.13004E-005	0.00000E+000	1.59980E-001	1.59325E-001	7	...........
	305	7.65	1.49635E-001	-2.14708E-005	0.00000E+000	1.49981E-001	1.49322E-001	7	...........
	306	7.675	1.39635E-001	-2.14825E-005	0.00000E+000	1.39982E-001	1.39518E-001	7	...........
	307	7.7	1.29635E-001	-2.17681E-005	0.00000E+000	1.29984E-001	1.29514E-001	7	...........
	308	7.725	1.19635E-001	-2.19568E-005	0.00000E+000	1.19985E-001	1.19310E-001	7	...........
	309	7.75	1.09435E-001	-2.21004E-005	0.00000E+000	1.09986E-001	1.09507E-001	7	...........
	310	7.775	9.96349E-002	-2.23109E-005	0.00000E+000	9.99874E-002	9.95032E-002	7	...........
	311	7.8	8.96349E-002	-2.26282E-005	0.00000E+000	8.99886E-002	8.92994E-002	7	...........
	312	7.825	7.96349E-002	-2.24729E-005	0.00000E+000	7.99899E-002	7.94958E-002	7	...........
	313	7.85	6.96349E-002	-2.26132E-005	0.00000E+000	6.99912E-002	6.94921E-002	7	...........
	314	7.875	5.98349E-002	-2.27802E-005	0.00000E+000	5.99924E-002	5.94884E-002	7	...........
	315	7.9	4.96349E-002	-2.29556E-005	0.00000E+000	4.99937E-002	4.94847E-002	7	...........
	316	7.925	3.96349E-002	-2.31927E-005	0.00000E+000	3.99949E-002	3.96811E-002	7	...........
	317	7.95	2.96349E-002	-2.34215E-005	0.00000E+000	2.99962E-002	2.94773E-002	7	...........
	318	7.975	1.98349E-002	-2.37823E-005	0.00000E+000	1.99975E-002	1.94736E-002	7	...........
	319	8	9.63488E-003	-2.36220E-005	0.00000E+000	9.99874E-003	9.46990E-003	7	...........
	320	8.025	-1.65120E-004	-2.38625E-005	0.00000E+000	0.00000E+000	-5.33797E-004	7	...........
	321	8.05	-1.03651E-002	-2.40078E-005	0.00000E+000	-9.99874E-003	-1.05375E-002	7	...........
	322	8.075	-2.03651E-002	-2.43769E-005	0.00000E+000	-1.99975E-002	-2.05412E-002	7	...........
	323	8.1	-3.01651E-002	-2.44069E-005	0.00000E+000	-2.99962E-002	-3.05449E-002	7	...........
	324	8.125	-4.03651E-002	-2.44871E-005	0.00000E+000	-3.99949E-002	-4.03485E-002	7	...........
	325	8.15	-5.01651E-002	-2.47393E-005	0.00000E+000	-4.99937E-002	-5.03522E-002	7	...........
	326	8.175	-6.03651E-002	-2.49297E-005	0.00000E+000	-5.99924E-002	-6.03559E-002	7	...........
	327	8.2	-7.03651E-002	-2.51318E-005	0.00000E+000	-6.99912E-002	-7.03596E-002	7	...........
	328	8.225	-8.03651E-002	-2.53757E-005	0.00000E+000	-7.99899E-002	-8.05634E-002	7	...........
	329	8.25	-9.03651E-002	-2.58550E-005	0.00000E+000	-8.99886E-002	-9.03670E-002	7	...........
	330	8.275	-1.00365E-001	-2.60254E-005	0.00000E+000	-9.99874E-002	-1.00371E-001	7	...........
	331	8.3	-1.10165E-001	-2.62625E-005	0.00000E+000	-1.09986E-001	-1.10374E-001	7	...........
	332	8.325	-1.20365E-001	-2.64763E-005	0.00000E+000	-1.19985E-001	-1.20378E-001	7	...........
	333	8.35	-1.30365E-001	-2.67218E-005	0.00000E+000	-1.29984E-001	-1.30382E-001	7	...........
	334	8.375	-1.40165E-001	-2.69222E-005	0.00000E+000	-1.39982E-001	-1.40185E-001	7	...........
	335	8.4	-1.50365E-001	-2.72045E-005	0.00000E+000	-1.49981E-001	-1.50389E-001	7	...........
	336	8.425	-1.60365E-001	-2.75736E-005	0.00000E+000	-1.59980E-001	-1.60193E-001	7	...........
	337	8.45	-1.70365E-001	-2.80012E-005	0.00000E+000	-1.69979E-001	-1.70397E-001	7	...........
	338	8.475	-1.80165E-001	-2.82333E-005	0.00000E+000	-1.79977E-001	-1.80200E-001	7	...........
	339	8.5	-1.90165E-001	-2.87277E-005	0.00000E+000	-1.89976E-001	-1.90204E-001	7	...........
	340	8.525	-2.00365E-001	-2.90567E-005	0.00000E+000	-1.99975E-001	-2.00208E-001	7	...........
	341	8.55	-2.10165E-001	-2.94292E-005	0.00000E+000	-2.09973E-001	-2.10211E-001	7	...........
	342	8.575	-2.20365E-001	-3.00772E-005	0.00000E+000	-2.20022E-001	-2.20215E-001	7	...........
	343	8.6	-2.30165E-001	-3.05733E-005	0.00000E+000	-2.30021E-001	-2.30219E-001	7	...........
	344	8.625	-2.39965E-001	-3.09390E-005	0.00000E+000	-2.40020E-001	-2.40422E-001	7	...........
	345	8.65	-2.50165E-001	-3.14668E-005	0.00000E+000	-2.50018E-001	-2.50026E-001	7	...........
	346	8.675	-2.60165E-001	-3.19996E-005	0.00000E+000	-2.60017E-001	-2.60230E-001	7	...........
	347	8.7	-2.69965E-001	-3.23119E-005	0.00000E+000	-2.70016E-001	-2.70233E-001	7	...........
	348	8.725	-2.80165E-001	-3.31487E-005	0.00000E+000	-2.80015E-001	-2.80237E-001	7	...........
	349	8.75	-2.90165E-001	-3.34727E-005	0.00000E+000	-2.90013E-001	-2.90241E-001	7	...........
	350	8.775	-2.99965E-001	-3.42894E-005	0.00000E+000	-3.00012E-001	-3.00245E-001	7	...........
	351	8.8	-3.10165E-001	-3.45934E-005	0.00000E+000	-3.10011E-001	-3.10248E-001	7	...........
	352	8.825	-3.19965E-001	-3.56807E-005	0.00000E+000	-3.20010E-001	-3.20252E-001	7	...........
	353	8.85	-3.30165E-001	-3.62352E-005	0.00000E+000	-3.30008E-001	-3.30256E-001	7	...........
	354	8.875	-3.40165E-001	-3.70319E-005	0.00000E+000	-3.40007E-001	-3.40259E-001	7	...........
	355	8.9	-3.50165E-001	-3.75463E-005	0.00000E+000	-3.50006E-001	-3.50263E-001	7	...........
	356	8.925	-3.60165E-001	-3.84014E-005	0.00000E+000	-3.60005E-001	-3.60267E-001	7	...........
	357	8.95	-3.70165E-001	-3.90745E-005	0.00000E+000	-3.70003E-001	-3.70270E-001	7	...........
	358	8.975	-3.80165E-001	-3.98294E-005	0.00000E+000	-3.80002E-001	-3.80074E-001	7	...........
	359	9	-3.90165E-001	-4.07798E-005	0.00000E+000	-3.90001E-001	-3.89878E-001	7	...........
	360	9.025	-4.00165E-001	-4.18537E-005	0.00000E+000	-3.99999E-001	-4.00081E-001	7	...........
	361	9.05	-4.09965E-001	-4.25535E-005	0.00000E+000	-4.09998E-001	-4.10085E-001	7	...........
	362	9.075	-4.20165E-001	-4.33686E-005	0.00000E+000	-4.19997E-001	-4.20089E-001	7	...........
	363	9.1	-4.29965E-001	-4.41786E-005	0.00000E+000	-4.29996E-001	-4.29893E-001	7	...........
	364	9.125	-4.40165E-001	-4.53978E-005	0.00000E+000	-4.39994E-001	-4.40096E-001	7	...........
	365	9.15	-4.50165E-001	-4.65668E-005	0.00000E+000	-4.49993E-001	-4.49900E-001	8	...........
	366	9.175	-4.60165E-001	-4.75685E-005	0.00000E+000	-4.59992E-001	-4.59904E-001	8	...........
	367	9.2	-4.70165E-001	-4.83030E-005	0.00000E+000	-4.69991E-001	-4.70107E-001	8	...........
	368	9.225	-4.80165E-001	-4.98223E-005	0.00000E+000	-4.79989E-001	-4.80111E-001	8	...........
	369	9.25	-4.89965E-001	-5.05902E-005	0.00000E+000	-4.89988E-001	-4.90115E-001	8	...........
	370	9.275	-4.99965E-001	-5.18423E-005	0.00000E+000	-4.99987E-001	-5.00118E-001	8	...........
	371	9.3	-5.09965E-001	-5.32781E-005	0.00000E+000	-5.09986E-001	-5.09922E-001	8	...........
	372	9.325	-5.20165E-001	-5.43799E-005	0.00000E+000	-5.19984E-001	-5.19926E-001	8	...........
	373	9.35	-5.29965E-001	-5.58657E-005	0.00000E+000	-5.29983E-001	-5.30130E-001	8	...........
	374	9.375	-5.40165E-001	-5.69509E-005	0.00000E+000	-5.39982E-001	-5.39933E-001	8	...........
	375	9.4	-5.49965E-001	-5.84868E-005	0.00000E+000	-5.49981E-001	-5.50137E-001	8	...........
	376	9.425	-5.59765E-001	-5.99726E-005	0.00000E+000	-5.59979E-001	-5.59941E-001	8	...........
	377	9.45	-5.69965E-001	-6.12748E-005	0.00000E+000	-5.69978E-001	-5.69944E-001	8	...........
	378	9.475	-5.80165E-001	-6.28775E-005	0.00000E+000	-5.79977E-001	-5.80148E-001	8	...........
	379	9.5	-5.89765E-001	-6.44468E-005	0.00000E+000	-5.89975E-001	-5.90152E-001	8	...........
	380	9.525	-5.99965E-001	-6.58324E-005	0.00000E+000	-5.99974E-001	-5.99955E-001	8	...........
	381	9.55	-6.09965E-001	-6.80028E-005	0.00000E+000	-6.09973E-001	-6.09959E-001	8	...........
	382	9.575	-6.19965E-001	-6.95554E-005	0.00000E+000	-6.20022E-001	-6.19963E-001	8	...........
	383	9.6	-6.29965E-001	-7.13751E-005	0.00000E+000	-6.30020E-001	-6.29966E-001	8	...........
	384	9.625	-6.39965E-001	-7.31781E-005	0.00000E+000	-6.40019E-001	-6.39970E-001	8	...........
	385	9.65	-6.49765E-001	-7.48309E-005	0.00000E+000	-6.50018E-001	-6.49974E-001	8	...........
	386	9.675	-6.59965E-001	-7.71514E-005	0.00000E+000	-6.60017E-001	-6.59978E-001	8	...........
	387	9.7	-6.69965E-001	-7.92717E-005	0.00000E+000	-6.70015E-001	-6.69981E-001	8	...........
	388	9.725	-6.79965E-001	-8.12750E-005	0.00000E+000	-6.80014E-001	-6.79985E-001	8	...........
	389	9.75	-6.89765E-001	-8.33452E-005	0.00000E+000	-6.90013E-001	-6.89989E-001	8	...........
	390	9.775	-6.99765E-001	-8.56991E-005	0.00000E+000	-7.00012E-001	-6.99792E-001	8	...........
	391	9.8	-7.09965E-001	-8.81365E-005	0.00000E+000	-7.10010E-001	-7.09796E-001	8	...........
	392	9.825	-7.19765E-001	-9.04905E-005	0.00000E+000	-7.20009E-001	-7.20000E-001	8	...........
	393	9.85	-7.29965E-001	-9.30949E-005	0.00000E+000	-7.30008E-001	-7.30003E-001	8	...........
	394	9.875	-7.39965E-001	-9.61333E-005	0.00000E+000	-7.40007E-001	-7.39607E-001	8	...........
	395	9.9	-7.49765E-001	-9.93220E-005	0.00000E+000	-7.50005E-001	-7.49811E-001	8	...........
	396	9.925	-7.59765E-001	-1.01526E-004	0.00000E+000	-7.60004E-001	-7.60015E-001	8	...........
	397	9.95	-7.69765E-001	-1.04881E-004	0.00000E+000	-7.70003E-001	-7.69818E-001	8	...........
	398	9.975	-7.79765E-001	-1.08003E-004	0.00000E+000	-7.80001E-001	-7.80022E-001	8	...........
	399	10	-7.89965E-001	-1.11626E-004	0.00000E+000	-7.90000E-001	-7.90026E-001	8	...........
	400	10.025	-7.99765E-001	-1.15149E-004	0.00000E+000	-7.99999E-001	-7.99829E-001	8	...........
	401	10.05	-7.89965E-001	-8.66006E-005	0.00000E+000	-7.90000E-001	-7.89825E-001	8	...........
	402	10.075	-7.79765E-001	-6.82365E-005	0.00000E+000	-7.80001E-001	-7.79822E-001	8	...........
	403	10.1	-7.69765E-001	-5.38791E-005	0.00000E+000	-7.70003E-001	-7.70018E-001	8	...........
	404	10.125	-7.59765E-001	-4.27270E-005	0.00000E+000	-7.60004E-001	-7.59814E-001	8	...........
	405	10.15	-7.49765E-001	-3.39790E-005	0.00000E+000	-7.50005E-001	-7.49811E-001	8	...........
	406	10.175	-7.39965E-001	-2.57264E-005	0.00000E+000	-7.40007E-001	-7.40007E-001	7	...........
	407	10.2	-7.29765E-001	-1.92227E-005	0.00000E+000	-7.30008E-001	-7.29803E-001	7	...........
	408	10.225	-7.19965E-001	-1.35558E-005	0.00000E+000	-7.20009E-001	-7.20000E-001	7	...........
	409	10.25	-7.09765E-001	-8.74395E-006	0.00000E+000	-7.10010E-001	-7.09996E-001	7	...........
	410	10.275	-6.99965E-001	-4.66369E-006	0.00000E+000	-7.00012E-001	-6.99792E-001	7	...........
	411	10.3	-6.89965E-001	-8.62351E-007	0.00000E+000	-6.90013E-001	-6.89789E-001	7	...........
	412	10.325	-6.79965E-001	2.00035E-006	0.00000E+000	-6.80014E-001	-6.79785E-001	7	...........
	413	10.35	-6.69765E-001	5.04342E-006	0.00000E+000	-6.70015E-001	-6.69981E-001	7	...........
[...]
	743	18.6	-5.69965E-001	1.91264E-005	0.00000E+000	-5.69978E-001	-5.69944E-001	7	...........
	744	18.625	-5.59965E-001	1.99431E-005	0.00000E+000	-5.59979E-001	-5.59941E-001	7	...........
	745	18.65	-5.49965E-001	2.02638E-005	0.00000E+000	-5.49981E-001	-5.49937E-001	7	...........
	746	18.675	-5.39965E-001	2.09185E-005	0.00000E+000	-5.39982E-001	-5.40133E-001	7	...........
	747	18.7	-5.29965E-001	2.13979E-005	0.00000E+000	-5.29983E-001	-5.30130E-001	7	...........
	748	18.725	-5.19965E-001	2.17018E-005	0.00000E+000	-5.19984E-001	-5.19926E-001	7	...........
	749	18.75	-5.09965E-001	2.19674E-005	0.00000E+000	-5.09986E-001	-5.09922E-001	7	...........
	750	18.775	-5.00165E-001	2.23265E-005	0.00000E+000	-4.99987E-001	-5.00118E-001	7	...........
	751	18.8	-4.89965E-001	2.24417E-005	0.00000E+000	-4.89988E-001	-4.90115E-001	7	...........
	752	18.825	-4.79965E-001	2.27440E-005	0.00000E+000	-4.79989E-001	-4.80111E-001	7	...........
	753	18.85	-4.70165E-001	2.28326E-005	0.00000E+000	-4.69991E-001	-4.70107E-001	7	...........
	754	18.875	-4.59965E-001	2.31115E-005	0.00000E+000	-4.59992E-001	-4.60104E-001	7	...........
	755	18.9	-4.49965E-001	2.32418E-005	0.00000E+000	-4.49993E-001	-4.50100E-001	7	...........
	756	18.925	-4.39965E-001	2.33102E-005	0.00000E+000	-4.39994E-001	-4.40096E-001	7	...........
	757	18.95	-4.30165E-001	2.34522E-005	0.00000E+000	-4.29996E-001	-4.30293E-001	7	...........
	758	18.975	-4.19965E-001	2.35574E-005	0.00000E+000	-4.19997E-001	-4.20289E-001	7	...........
	759	19	-4.10165E-001	2.35658E-005	0.00000E+000	-4.09998E-001	-4.10285E-001	7	...........
	760	19.025	-3.99965E-001	2.36510E-005	0.00000E+000	-3.99999E-001	-4.00081E-001	7	...........
	761	19.05	-3.89965E-001	2.37612E-005	0.00000E+000	-3.90001E-001	-3.90078E-001	7	...........
	762	19.075	-3.79965E-001	2.38029E-005	0.00000E+000	-3.80002E-001	-3.80074E-001	7	...........
	763	19.1	-3.70165E-001	2.36626E-005	0.00000E+000	-3.70003E-001	-3.70270E-001	7	...........
	764	19.125	-3.59965E-001	2.37528E-005	0.00000E+000	-3.60005E-001	-3.60267E-001	7	...........
	765	19.15	-3.50165E-001	2.36593E-005	0.00000E+000	-3.50006E-001	-3.50263E-001	7	...........
	766	19.175	-3.40165E-001	2.38664E-005	0.00000E+000	-3.40007E-001	-3.40459E-001	7	...........
	767	19.2	-3.29965E-001	2.36443E-005	0.00000E+000	-3.30008E-001	-3.30056E-001	7	...........
	768	19.225	-3.19965E-001	2.38363E-005	0.00000E+000	-3.20010E-001	-3.20052E-001	7	...........
	769	19.25	-3.10165E-001	2.37929E-005	0.00000E+000	-3.10011E-001	-3.10248E-001	7	...........
	770	19.275	-3.00365E-001	2.37428E-005	0.00000E+000	-3.00012E-001	-3.00245E-001	7	...........
	771	19.3	-2.90165E-001	2.37545E-005	0.00000E+000	-2.90013E-001	-2.90241E-001	7	...........
	772	19.325	-2.80365E-001	2.39349E-005	0.00000E+000	-2.80015E-001	-2.80237E-001	7	...........
	773	19.35	-2.70365E-001	2.39115E-005	0.00000E+000	-2.70016E-001	-2.70233E-001	7	...........
	774	19.375	-2.60165E-001	2.36610E-005	0.00000E+000	-2.60017E-001	-2.60230E-001	7	...........
	775	19.4	-2.50165E-001	2.37829E-005	0.00000E+000	-2.50018E-001	-2.50426E-001	7	...........
	776	19.425	-2.40365E-001	2.36877E-005	0.00000E+000	-2.40020E-001	-2.40222E-001	7	...........
	777	19.45	-2.29965E-001	2.33837E-005	0.00000E+000	-2.30021E-001	-2.30219E-001	7	...........
	778	19.475	-2.20165E-001	2.36510E-005	0.00000E+000	-2.20022E-001	-2.20415E-001	7	...........
	779	19.5	-2.10165E-001	2.36443E-005	0.00000E+000	-2.09973E-001	-2.10411E-001	7	...........
	780	19.525	-2.00165E-001	2.36192E-005	0.00000E+000	-1.99975E-001	-2.00208E-001	7	...........
	781	19.55	-1.89965E-001	2.37295E-005	0.00000E+000	-1.89976E-001	-1.90204E-001	7	...........
	782	19.575	-1.80165E-001	2.33854E-005	0.00000E+000	-1.79977E-001	-1.80200E-001	7	...........
	783	19.6	-1.70165E-001	2.36359E-005	0.00000E+000	-1.69979E-001	-1.70397E-001	7	...........
	784	19.625	-1.60165E-001	2.34572E-005	0.00000E+000	-1.59980E-001	-1.60393E-001	7	...........
	785	19.65	-1.50365E-001	2.36710E-005	0.00000E+000	-1.49981E-001	-1.50389E-001	7	...........
	786	19.675	-1.40165E-001	2.35658E-005	0.00000E+000	-1.39982E-001	-1.40385E-001	7	...........
	787	19.7	-1.30365E-001	2.35624E-005	0.00000E+000	-1.29984E-001	-1.30382E-001	7	...........
	788	19.725	-1.20365E-001	2.35574E-005	0.00000E+000	-1.19985E-001	-1.20378E-001	7	...........
	789	19.75	-1.10165E-001	2.34288E-005	0.00000E+000	-1.09986E-001	-1.10374E-001	7	...........
	790	19.775	-9.99651E-002	2.36175E-005	0.00000E+000	-9.99874E-002	-1.00371E-001	7	...........
	791	19.8	-9.01651E-002	2.37395E-005	0.00000E+000	-8.99886E-002	-9.05671E-002	7	...........
	792	19.825	-8.03651E-002	2.35140E-005	0.00000E+000	-7.99899E-002	-8.03633E-002	7	...........
	793	19.85	-7.03651E-002	2.37846E-005	0.00000E+000	-6.99912E-002	-7.03596E-002	7	...........
	794	19.875	-6.03651E-002	2.39282E-005	0.00000E+000	-5.99924E-002	-6.01558E-002	7	...........
	795	19.9	-5.03651E-002	2.37679E-005	0.00000E+000	-4.99937E-002	-5.05523E-002	7	...........
	796	19.925	-4.01651E-002	2.41203E-005	0.00000E+000	-3.99949E-002	-4.03485E-002	7	...........
	797	19.95	-3.01651E-002	2.42071E-005	0.00000E+000	-2.99962E-002	-3.03448E-002	7	...........
	798	19.975	-2.01651E-002	2.42489E-005	0.00000E+000	-1.99975E-002	-2.03411E-002	7	...........
	799	20	-1.01651E-002	2.43591E-005	0.00000E+000	-9.99874E-003	-1.05375E-002	7	...........
	800	20.025	-3.65120E-004	2.44911E-005	0.00000E+000	0.00000E+000	-3.33723E-004	7	...........
	801	20.05	9.63488E-003	2.46330E-005	0.00000E+000	9.99874E-003	9.46990E-003	7	...........
	802	20.075	1.98349E-002	2.48919E-005	0.00000E+000	1.99975E-002	1.96737E-002	7	...........
	803	20.1	2.94349E-002	2.49003E-005	0.00000E+000	2.99962E-002	2.92772E-002	7	...........
	804	20.125	3.96349E-002	2.53512E-005	0.00000E+000	3.99949E-002	3.94810E-002	7	...........
	805	20.15	4.96349E-002	2.54397E-005	0.00000E+000	4.99937E-002	4.94847E-002	7	...........
	806	20.175	5.96349E-002	2.55299E-005	0.00000E+000	5.99924E-002	5.94884E-002	7	...........
	807	20.2	6.96349E-002	2.57871E-005	0.00000E+000	6.99912E-002	6.92920E-002	7	...........
	808	20.225	7.96349E-002	2.60042E-005	0.00000E+000	7.99899E-002	7.94958E-002	7	...........
	809	20.25	8.96349E-002	2.61061E-005	0.00000E+000	8.99886E-002	8.94995E-002	7	...........
	810	20.275	9.96349E-002	2.64218E-005	0.00000E+000	9.99874E-002	9.93031E-002	7	...........
	811	20.3	1.09635E-001	2.66072E-005	0.00000E+000	1.09986E-001	1.09507E-001	7	...........
	812	20.325	1.19435E-001	2.68310E-005	0.00000E+000	1.19985E-001	1.19310E-001	7	...........
	813	20.35	1.29635E-001	2.71483E-005	0.00000E+000	1.29984E-001	1.29314E-001	7	...........
	814	20.375	1.39635E-001	2.72786E-005	0.00000E+000	1.39982E-001	1.39518E-001	7	...........
	815	20.4	1.49435E-001	2.76527E-005	0.00000E+000	1.49981E-001	1.49322E-001	7	...........
	816	20.425	1.59635E-001	2.77078E-005	0.00000E+000	1.59980E-001	1.59525E-001	7	...........
	817	20.45	1.69635E-001	2.81972E-005	0.00000E+000	1.69979E-001	1.69329E-001	7	...........
	818	20.475	1.79635E-001	2.85045E-005	0.00000E+000	1.79977E-001	1.79333E-001	7	...........
	819	20.5	1.89635E-001	2.87550E-005	0.00000E+000	1.90026E-001	1.89336E-001	7	...........
	820	20.525	1.99435E-001	2.89872E-005	0.00000E+000	2.00025E-001	1.99540E-001	7	...........
	821	20.55	2.09435E-001	2.90807E-005	0.00000E+000	2.10023E-001	2.09344E-001	7	...........
	822	20.575	2.19435E-001	2.97906E-005	0.00000E+000	2.20022E-001	2.19347E-001	7	...........
	823	20.6	2.29235E-001	3.01513E-005	0.00000E+000	2.30021E-001	2.29551E-001	7	...........
	824	20.625	2.39435E-001	3.03233E-005	0.00000E+000	2.40020E-001	2.39355E-001	7	...........
	825	20.65	2.49435E-001	3.09948E-005	0.00000E+000	2.50018E-001	2.49159E-001	7	...........
	826	20.675	2.59635E-001	3.14624E-005	0.00000E+000	2.60017E-001	2.59362E-001	7	...........
	827	20.7	2.69435E-001	3.16177E-005	0.00000E+000	2.70016E-001	2.69166E-001	7	...........
	828	20.725	2.79635E-001	3.19735E-005	0.00000E+000	2.80015E-001	2.79370E-001	7	...........
	829	20.75	2.89435E-001	3.25831E-005	0.00000E+000	2.90013E-001	2.89173E-001	7	...........
	830	20.775	2.99635E-001	3.29455E-005	0.00000E+000	3.00012E-001	2.98977E-001	7	...........
	831	20.8	3.09435E-001	3.32128E-005	0.00000E+000	3.10011E-001	3.09181E-001	7	...........
	832	20.825	3.19435E-001	3.39025E-005	0.00000E+000	3.20010E-001	3.19384E-001	7	...........
	833	20.85	3.29235E-001	3.43184E-005	0.00000E+000	3.30008E-001	3.29188E-001	7	...........
	834	20.875	3.39635E-001	3.46942E-005	0.00000E+000	3.40007E-001	3.39392E-001	7	...........
	835	20.9	3.49635E-001	3.54926E-005	0.00000E+000	3.50006E-001	3.49195E-001	7	...........
	836	20.925	3.59635E-001	3.58266E-005	0.00000E+000	3.60005E-001	3.59199E-001	7	...........
	837	20.95	3.69435E-001	3.63226E-005	0.00000E+000	3.70003E-001	3.69203E-001	7	...........
	838	20.975	3.79435E-001	3.69690E-005	0.00000E+000	3.80002E-001	3.79207E-001	7	...........
	839	21	3.89635E-001	3.77323E-005	0.00000E+000	3.90001E-001	3.89210E-001	7	...........
	840	21.025	3.99435E-001	3.82300E-005	0.00000E+000	3.99999E-001	3.99214E-001	7	...........
	841	21.05	4.09435E-001	3.88112E-005	0.00000E+000	4.09998E-001	4.09218E-001	7	...........
	842	21.075	4.19435E-001	3.93557E-005	0.00000E+000	4.19997E-001	4.19221E-001	7	...........
	843	21.1	4.29435E-001	3.99670E-005	0.00000E+000	4.29996E-001	4.29225E-001	7	...........
	844	21.125	4.39435E-001	4.06100E-005	0.00000E+000	4.39994E-001	4.39029E-001	7	...........
	845	21.15	4.49435E-001	4.13365E-005	0.00000E+000	4.49993E-001	4.49032E-001	7	...........
	846	21.175	4.59435E-001	4.19244E-005	0.00000E+000	4.59992E-001	4.59036E-001	7	...........
	847	21.2	4.69235E-001	4.27612E-005	0.00000E+000	4.69991E-001	4.69040E-001	7	...........
	848	21.225	4.79435E-001	4.35378E-005	0.00000E+000	4.79989E-001	4.79043E-001	7	...........
	849	21.25	4.89235E-001	4.39738E-005	0.00000E+000	4.89988E-001	4.89247E-001	7	...........
	850	21.275	4.99435E-001	4.50026E-005	0.00000E+000	4.99987E-001	4.99051E-001	7	...........
	851	21.3	5.09235E-001	4.56713E-005	0.00000E+000	5.09986E-001	5.09055E-001	8	...........
	852	21.325	5.19235E-001	4.62055E-005	0.00000E+000	5.19984E-001	5.19058E-001	8	...........
	853	21.35	5.29235E-001	4.73074E-005	0.00000E+000	5.29983E-001	5.29062E-001	8	...........
	854	21.375	5.39435E-001	4.80586E-005	0.00000E+000	5.39982E-001	5.39266E-001	8	...........
	855	21.4	5.49235E-001	4.88266E-005	0.00000E+000	5.49981E-001	5.49269E-001	8	...........
	856	21.425	5.59235E-001	4.95945E-005	0.00000E+000	5.59979E-001	5.59073E-001	8	...........
	857	21.45	5.69235E-001	5.03124E-005	0.00000E+000	5.69978E-001	5.69277E-001	8	...........
	858	21.475	5.79235E-001	5.10804E-005	0.00000E+000	5.79977E-001	5.79080E-001	8	...........
	859	21.5	5.89235E-001	5.22156E-005	0.00000E+000	5.89975E-001	5.89084E-001	8	...........
	860	21.525	5.99235E-001	5.32674E-005	0.00000E+000	6.00024E-001	5.98888E-001	8	...........
	861	21.55	6.09235E-001	5.38851E-005	0.00000E+000	6.10023E-001	6.09092E-001	8	...........
	862	21.575	6.19235E-001	5.49368E-005	0.00000E+000	6.20022E-001	6.18895E-001	8	...........
	863	21.6	6.29235E-001	5.56881E-005	0.00000E+000	6.30020E-001	6.29099E-001	8	...........
	864	21.625	6.39435E-001	5.65562E-005	0.00000E+000	6.40019E-001	6.38903E-001	8	...........
	865	21.65	6.49235E-001	5.76914E-005	0.00000E+000	6.50018E-001	6.49106E-001	8	...........
	866	21.675	6.59235E-001	5.85596E-005	0.00000E+000	6.60017E-001	6.59110E-001	8	...........
	867	21.7	6.69235E-001	5.92441E-005	0.00000E+000	6.70015E-001	6.69114E-001	8	...........
	868	21.725	6.79235E-001	6.09302E-005	0.00000E+000	6.80014E-001	6.78917E-001	8	...........
	869	21.75	6.89035E-001	6.17482E-005	0.00000E+000	6.90013E-001	6.88921E-001	8	...........
	870	21.775	6.99235E-001	6.32842E-005	0.00000E+000	7.00012E-001	6.98925E-001	8	...........
	871	21.8	7.09235E-001	6.43860E-005	0.00000E+000	7.10010E-001	7.08928E-001	8	...........
	872	21.825	7.19235E-001	6.50037E-005	0.00000E+000	7.20009E-001	7.19132E-001	8	...........
	873	21.85	7.29435E-001	6.64395E-005	0.00000E+000	7.30008E-001	7.29136E-001	8	...........
	874	21.875	7.39035E-001	6.79420E-005	0.00000E+000	7.40007E-001	7.38940E-001	8	...........
	875	21.9	7.49235E-001	6.95447E-005	0.00000E+000	7.50005E-001	7.48943E-001	8	...........
	876	21.925	7.59035E-001	7.09470E-005	0.00000E+000	7.60004E-001	7.58947E-001	8	...........
	877	21.95	7.69235E-001	7.20989E-005	0.00000E+000	7.70003E-001	7.69151E-001	8	...........
	878	21.975	7.79235E-001	7.38352E-005	0.00000E+000	7.80001E-001	7.78954E-001	8	...........
	879	22	7.89035E-001	7.57217E-005	0.00000E+000	7.90000E-001	7.89158E-001	8	...........
	880	22.025	7.99235E-001	7.73912E-005	0.00000E+000	7.99999E-001	7.98962E-001	8	...........
CURVE4	TABLE
	Pt	T	Vf	Im	Vu	Sig	Ach	IERange	Over
	#	s	V vs. Ref.	A	V	V	V	#	bits
	881	22.05	7.89235E-001	5.71071E-005	0.00000E+000	7.90000E-001	7.88958E-001	8	...........
	882	22.075	7.79235E-001	4.45527E-005	0.00000E+000	7.80001E-001	7.78954E-001	8	...........
	883	22.1	7.69235E-001	3.58047E-005	0.00000E+000	7.70003E-001	7.68951E-001	8	...........
	884	22.125	7.59035E-001	2.91158E-005	0.00000E+000	7.60004E-001	7.58947E-001	7	...........
	885	22.15	7.49235E-001	2.36075E-005	0.00000E+000	7.50005E-001	7.49143E-001	7	...........
	886	22.175	7.39235E-001	1.91548E-005	0.00000E+000	7.40007E-001	7.38739E-001	7	...........
	887	22.2	7.29435E-001	1.53835E-005	0.00000E+000	7.30008E-001	7.28936E-001	7	...........
	888	22.225	7.19035E-001	1.22820E-005	0.00000E+000	7.20009E-001	7.18932E-001	7	...........
	889	22.25	7.09235E-001	9.49781E-006	0.00000E+000	7.10010E-001	7.08928E-001	7	...........
	890	22.275	6.99235E-001	7.03261E-006	0.00000E+000	7.00012E-001	6.98925E-001	7	...........
	891	22.3	6.89435E-001	4.77118E-006	0.00000E+000	6.90013E-001	6.89121E-001	7	...........
	892	22.325	6.79235E-001	3.00079E-006	0.00000E+000	6.80014E-001	6.79117E-001	7	...........
	893	22.35	6.69235E-001	1.39741E-006	0.00000E+000	6.70015E-001	6.69114E-001	7	...........
	894	22.375	6.59235E-001	-1.95947E-007	0.00000E+000	6.60017E-001	6.59310E-001	7	...........
	895	22.4	6.49235E-001	-1.62897E-006	0.00000E+000	6.50018E-001	6.49106E-001	7	...........
	896	22.425	6.39435E-001	-2.95843E-006	0.00000E+000	6.40019E-001	6.38903E-001	7	...........
	897	22.45	6.29235E-001	-4.00564E-006	0.00000E+000	6.30020E-001	6.29099E-001	7	...........
	898	22.475	6.19235E-001	-5.24492E-006	0.00000E+000	6.20022E-001	6.19095E-001	7	...........
	899	22.5	6.09235E-001	-6.11842E-006	0.00000E+000	6.10023E-001	6.09092E-001	7	...........
	900	22.525	5.99235E-001	-7.24914E-006	0.00000E+000	6.00024E-001	5.99088E-001	7	...........
	901	22.55	5.89235E-001	-7.95563E-006	0.00000E+000	5.89975E-001	5.89084E-001	7	...........
	902	22.575	5.79235E-001	-8.84583E-006	0.00000E+000	5.79977E-001	5.79280E-001	7	...........
	903	22.6	5.69435E-001	-9.67591E-006	0.00000E+000	5.69978E-001	5.69077E-001	7	...........
	904	22.625	5.59235E-001	-1.02020E-005	0.00000E+000	5.59979E-001	5.59073E-001	7	...........
	905	22.65	5.49635E-001	-1.07465E-005	0.00000E+000	5.49981E-001	5.49069E-001	7	...........
	906	22.675	5.39435E-001	-1.17353E-005	0.00000E+000	5.39982E-001	5.39266E-001	7	...........
	907	22.7	5.29235E-001	-1.19591E-005	0.00000E+000	5.29983E-001	5.29062E-001	7	...........
	908	22.725	5.19235E-001	-1.27607E-005	0.00000E+000	5.19984E-001	5.19058E-001	7	...........
	909	22.75	5.09235E-001	-1.32033E-005	0.00000E+000	5.09986E-001	5.09055E-001	7	...........
	910	22.775	4.99235E-001	-1.37762E-005	0.00000E+000	4.99987E-001	4.99051E-001	7	...........
	911	22.8	4.89235E-001	-1.41353E-005	0.00000E+000	4.89988E-001	4.89247E-001	7	...........
	912	22.825	4.79435E-001	-1.45478E-005	0.00000E+000	4.79989E-001	4.79244E-001	7	...........
	913	22.85	4.69235E-001	-1.48468E-005	0.00000E+000	4.69991E-001	4.69240E-001	7	...........
	914	22.875	4.59435E-001	-1.54364E-005	0.00000E+000	4.59992E-001	4.59236E-001	7	...........
	915	22.9	4.49235E-001	-1.56836E-005	0.00000E+000	4.49993E-001	4.49032E-001	7	...........
	916	22.925	4.39435E-001	-1.59642E-005	0.00000E+000	4.39994E-001	4.39229E-001	7	...........
	917	22.95	4.29435E-001	-1.61997E-005	0.00000E+000	4.29996E-001	4.29225E-001	7	...........
	918	22.975	4.19235E-001	-1.65220E-005	0.00000E+000	4.19997E-001	4.19221E-001	7	...........
	919	23	4.09435E-001	-1.69446E-005	0.00000E+000	4.09998E-001	4.09418E-001	7	...........
	920	23.025	3.99635E-001	-1.69379E-005	0.00000E+000	3.99999E-001	3.99214E-001	7	...........
	921	23.05	3.89235E-001	-1.74323E-005	0.00000E+000	3.90001E-001	3.89210E-001	7	...........
	922	23.075	3.79435E-001	-1.75224E-005	0.00000E+000	3.80002E-001	3.79207E-001	7	...........
	923	23.1	3.69435E-001	-1.77396E-005	0.00000E+000	3.70003E-001	3.69403E-001	7	...........
	924	23.125	3.59635E-001	-1.79116E-005	0.00000E+000	3.60005E-001	3.59199E-001	7	...........
	925	23.15	3.49435E-001	-1.81120E-005	0.00000E+000	3.50006E-001	3.49195E-001	7	...........
	926	23.175	3.39635E-001	-1.85012E-005	0.00000E+000	3.40007E-001	3.39192E-001	7	...........
	927	23.2	3.29435E-001	-1.86448E-005	0.00000E+000	3.30008E-001	3.29188E-001	7	...........
	928	23.225	3.19435E-001	-1.87200E-005	0.00000E+000	3.20010E-001	3.19384E-001	7	...........
	929	23.25	3.09435E-001	-1.89555E-005	0.00000E+000	3.10011E-001	3.09381E-001	7	...........
	930	23.275	2.99435E-001	-1.90139E-005	0.00000E+000	3.00012E-001	2.99177E-001	7	...........
	931	23.3	2.89635E-001	-1.94582E-005	0.00000E+000	2.90013E-001	2.89373E-001	7	...........
	932	23.325	2.79635E-001	-1.93630E-005	0.00000E+000	2.80015E-001	2.79170E-001	7	...........
	933	23.35	2.69635E-001	-1.94064E-005	0.00000E+000	2.70016E-001	2.69366E-001	7	...........
	934	23.375	2.59435E-001	-1.96787E-005	0.00000E+000	2.60017E-001	2.59362E-001	7	...........
	935	23.4	2.49635E-001	-1.99375E-005	0.00000E+000	2.50018E-001	2.49359E-001	7	...........
	936	23.425	2.39435E-001	-1.98807E-005	0.00000E+000	2.40020E-001	2.39155E-001	7	...........
	937	23.45	2.29635E-001	-2.02315E-005	0.00000E+000	2.30021E-001	2.29351E-001	7	...........
	938	23.475	2.19635E-001	-2.02248E-005	0.00000E+000	2.20022E-001	2.19347E-001	7	...........
	939	23.5	2.09635E-001	-2.03968E-005	0.00000E+000	2.10023E-001	2.09344E-001	7	...........
	940	23.525	1.99435E-001	-2.05221E-005	0.00000E+000	2.00025E-001	1.99340E-001	7	...........
	941	23.55	1.89635E-001	-2.08778E-005	0.00000E+000	1.90026E-001	1.89336E-001	7	...........
	942	23.575	1.79635E-001	-2.08895E-005	0.00000E+000	1.79977E-001	1.79533E-001	7	...........
	943	23.6	1.69635E-001	-2.10399E-005	0.00000E+000	1.69979E-001	1.69329E-001	7	...........
	944	23.625	1.59635E-001	-2.11033E-005	0.00000E+000	1.59980E-001	1.59325E-001	7	...........
	945	23.65	1.49435E-001	-2.13305E-005	0.00000E+000	1.49981E-001	1.49122E-001	7	...........
	946	23.675	1.39435E-001	-2.15593E-005	0.00000E+000	1.39982E-001	1.39318E-001	7	...........
	947	23.7	1.29635E-001	-2.16879E-005	0.00000E+000	1.29984E-001	1.29514E-001	7	...........
	948	23.725	1.19635E-001	-2.15543E-005	0.00000E+000	1.19985E-001	1.19310E-001	7	...........
	949	23.75	1.09435E-001	-2.19117E-005	0.00000E+000	1.09986E-001	1.09507E-001	7	...........
	950	23.775	9.96349E-002	-2.19969E-005	0.00000E+000	9.99874E-002	9.93031E-002	7	...........
	951	23.8	8.96349E-002	-2.22775E-005	0.00000E+000	8.99886E-002	8.94995E-002	7	...........
	952	23.825	7.98349E-002	-2.23443E-005	0.00000E+000	7.99899E-002	7.94958E-002	7	...........
	953	23.85	6.96349E-002	-2.27201E-005	0.00000E+000	6.99912E-002	6.94921E-002	7	...........
	954	23.875	5.96349E-002	-2.27752E-005	0.00000E+000	5.99924E-002	5.94884E-002	7	...........
	955	23.9	4.96349E-002	-2.28670E-005	0.00000E+000	4.99937E-002	4.96848E-002	7	...........
	956	23.925	3.98349E-002	-2.31226E-005	0.00000E+000	3.99949E-002	3.94810E-002	7	...........
	957	23.95	2.96349E-002	-2.31343E-005	0.00000E+000	2.99962E-002	2.94773E-002	7	...........
	958	23.975	1.96349E-002	-2.33280E-005	0.00000E+000	1.99975E-002	1.94736E-002	7	...........
	959	24	9.63488E-003	-2.32729E-005	0.00000E+000	9.99874E-003	9.46990E-003	7	...........
	960	24.025	-3.65120E-004	-2.35802E-005	0.00000E+000	0.00000E+000	-3.33723E-004	7	...........