File: Data/CV_CRGO300517_5/PWRCCD_CRGO300517_5/PWRCCD_CRGO300517_5.DTA
EXPLAIN
TAG	PWR800_CYCLICCHARGEDISCHARGE
TITLE	LABEL	PWR Cyclic Charge Discharge (Cell)	Test &Identifier
DATE	LABEL	10-7-2017	Date
TIME	LABEL	14:59:25	Time
NOTES	NOTES	3	&Notes...
	supercap test cell
	0.9mg
	6M KOH
PSTAT	PSTAT	IFC5000-01520	Potentiostat
CAPACITY	QUANT	1.00000E-003	Capacity (A-hr)
CYCLES	IQUANT	1000	Number of Cycles
FIRSTSTEP	SELECTOR	0	First Step
CELLTYPE	SELECTOR	1	&Cell Type
WORKINGCONNECTION	SELECTOR	0	&Working Lead
MAXCHARGETIME	VARIABLEANDUNITS	1.00000E+002	s	1.00000E+002	second(s)	Max &Charge Time
CHARGECURRENT	QUANT	9.00000E-005	&Charge Current (A)
VOLTAGEFINISH	TWOPARAM	F	1.00000E-003	3.60000E+003	&Voltage Finish	 I (A) < 	Max Time(s)
SAMPLETIME	QUANT	1.00000E-002	Sa&mple Period (s)
CHARGESTOPAT1	MULTIPARAM	4	1.00000E+000	Charge Stop At &1	Voltage > Limit	V
CHARGESTOPAT2	MULTIPARAM	0	0.00000E+000	Charge Stop At &2	None	N/A
IRCOMP	TOGGLE	F	IR &Measure
EOC	QUANT	0	Open Circuit (V)
CHARGERESTTIME	VARIABLEANDUNITS	1.00000E-001	s	1.00000E-001	second(s)	&Charge Rest Time
MAXDISCHARGETIME	VARIABLEANDUNITS	1.00000E+002	s	1.00000E+002	second(s)	Max &Discharge Time
DISCHARGEMODE	MULTIPARAM	0	9.00000E-005	&Discharge Mode	Constant Current	Amp(s)
DISCHARGESTOPAT1	MULTIPARAM	3	0.00000E+000	Discharge Stop At &1	Voltage < Limit	V
DISCHARGESTOPAT2	MULTIPARAM	0	0.00000E+000	Discharge Stop At &2	None	N/A
DISCHARGERESTTIME	VARIABLEANDUNITS	1.00000E-001	s	1.00000E-001	second(s)	&Discharge Rest Time
LOOPEND1	MULTIPARAM	0	3.60000E+003	Loop End &1	None	N/A
LOOPEND2	MULTIPARAM	0	0.00000E+000	Loop End &2	None	N/A
PSTATMODEL	IQUANT	53	Pstat Model
PSTATSECTION	LABEL	IFC5000-01520	Pstat Section
PSTATSERIALNO	LABEL	01520	Pstat Serial Number
CTRLMODE	IQUANT	0	Control Mode
ELECTROMETER	IQUANT	1	RE=0 or CS=1
IESTAB	IQUANT	0	I/E Stability
CASPEED	IQUANT	4	Control Amp Speed
CONVENTION	IQUANT	1	Current Convention
ICHRANGE	IQUANT	2	Ich Range
ICHRANGEMODE	TOGGLE	T	Ich Auto Range
ICHOFFSETENABLE	TOGGLE	F	Ich Offset Enable
ICHOFFSET	QUANT	0	Ich Offset (V)
ICHFILTER	IQUANT	1	Ich Filter
VCHRANGE	IQUANT	0	Vch Range
VCHRANGEMODE	TOGGLE	T	Vch Auto Range
VCHOFFSETENABLE	TOGGLE	F	Vch Offset Enable
VCHOFFSET	QUANT	0	Vch Offset (V)
VCHFILTER	IQUANT	1	Vch Filter
IERANGELOWERLIMIT	IQUANT	9	I/E Range Lower Limit
IERANGEMODE	TOGGLE	F	I/E AutoRange
IERANGE	IQUANT	9	I/E Range
ACHSELECT	IQUANT	1	Ach Select
ACHRANGE	IQUANT	0	Ach Range
ACHOFFSETENABLE	TOGGLE	F	Ach Offset Enable
ACHOFFSET	QUANT	0	Ach Offset (V)
ACHFILTER	IQUANT	1	Ach Filter
CABLEID	IQUANT	14	Cable ID
DCCALDATE	LABEL	5-7-2017	DC Calibration Date
ACCALDATE	LABEL	12/3/2015	AC Calibration Date
FRAMEWORKVERSION	QUANT	7.01	Framework Version
INSTRUMENTVERSION	LABEL	4.00	Instrument Version
CAPACITYCURVE	TABLE
	Pt	Time	Type	Cycle	Charge	Duration	Vstart	Vend	Energy	Tstart	Tend	Over
	#	s	#	#	C	s	V	V	J	deg C	deg C	bits
	1	4	0	1	0.0002719	2.978333	0.5322006	0.999976	0.0002371	3.574	3.5706	...........
	5	17	0	3	0.0002905	3.183333	0.2990987	0.999816	0.0002359	3.5708	3.5709	...........
	9	30	0	5	0.0002803	3.071667	0.3049905	0.999976	0.0002273	3.5709	3.571	...........
	13	42	0	7	0.0002748	3.011667	0.3013718	0.999712	0.0002222	3.5709	3.5707	...........
	17	55	0	9	0.0002699	2.958333	0.2984326	0.999782	0.0002178	3.5716	3.5706	...........
	21	67	0	11	0.0002663	2.918333	0.303413	0.999736	0.0002148	3.571499	3.5707	...........
	25	80	0	13	0.0002635	2.888333	0.2992332	0.999838	0.0002122	3.571	3.5707	...........
	29	92	0	15	0.0002611	2.861667	0.2986468	0.999852	0.0002101	3.5711	3.5716	...........
	33	104	0	17	0.0002589	2.838333	0.3029063	0.999753	0.0002085	3.571	3.5708	...........
	37	116	0	19	0.0002562	2.808333	0.298838	0.99983	0.0002058	3.5711	3.5708	...........
	41	128	0	21	0.0002551	2.796667	0.2999734	0.999708	0.000205	3.571499	3.5715	...........
	45	140	0	23	0.0002531	2.775	0.298893	1.000076	0.0002032	3.5711	3.5716	...........
	49	152	0	25	0.0002507	2.748333	0.3002814	1.000076	0.0002012	3.5711	3.5709	...........
	53	164	0	27	0.0002492	2.731667	0.3008829	0.999676	0.0001999	3.5714	3.5709	...........
	57	176	0	29	0.0002439	2.673333	0.3882783	0.999838	0.0002001	3.5713	3.5709	...........
	61	188	0	31	0.0002471	2.708333	0.3004373	1.000066	0.0001981	3.5712	3.5713	...........
	65	200	0	33	0.0002457	2.693333	0.2964185	0.999661	0.0001966	3.571499	3.571	...........
	69	211	0	35	0.0002447	2.683333	0.2988017	0.999971	0.000196	3.5719	3.571	...........
	73	223	0	37	0.0002434	2.668333	0.2989993	1.000016	0.0001947	3.571499	3.5711	...........
	77	235	0	39	0.0002427	2.661667	0.2984149	0.999802	0.0001942	3.5713	3.571	...........
	81	246	0	41	0.0002416	2.648333	0.2971103	0.99974	0.0001931	3.5714	3.5712	...........
	85	258	0	43	0.0002412	2.645	0.2991205	0.999899	0.0001929	3.5714	3.5714	...........
	89	269	0	45	0.0002403	2.635	0.2998002	0.999848	0.0001922	3.5714	3.5711	...........
	93	281	0	47	0.0002388	2.618333	0.2982673	0.999903	0.0001908	3.571499	3.5712	...........
	97	292	0	49	0.0002379	2.608333	0.2988245	0.999774	0.0001901	3.5714	3.5711	...........
	101	303	0	51	0.0002372	2.601667	0.2998724	1.000046	0.0001895	3.572	3.5712	...........
	105	315	0	53	0.0002374	2.603333	0.2993854	1.000006	0.0001897	3.5716	3.5722	...........
	109	326	0	55	0.0002359	2.586667	0.2960488	0.999632	0.0001881	3.571499	3.5712	...........
	113	337	0	57	0.0002354	2.581667	0.2958162	0.999894	0.0001877	3.5718	3.5712	...........
	117	349	0	59	0.0002331	2.556667	0.3060664	0.999793	0.0001863	3.5716	3.5713	...........
	121	361	0	61	0.0002337	2.563334	0.3045831	1.000001	0.0001867	3.5716	3.5712	...........
	125	372	0	63	0.0002339	2.565	0.2949519	0.999936	0.0001864	3.5723	3.5713	...........
	129	383	0	65	0.0002331	2.556667	0.2944896	0.999773	0.0001857	3.5716	3.5713	...........
	133	394	0	67	0.0002328	2.553333	0.2990223	0.999821	0.0001856	3.5717	3.5713	...........
	137	406	0	69	0.0002321	2.545	0.2991478	0.999609	0.0001849	3.5717	3.5719	...........
	141	417	0	71	0.000232	2.545	0.2985615	0.999659	0.0001849	3.571499	3.5713	...........
	145	428	0	73	0.0002315	2.54	0.2948357	0.999861	0.0001843	3.5717	3.5715	...........
	149	439	0	75	0.0002311	2.535	0.2956562	1.000056	0.000184	3.5716	3.5713	...........
	153	451	0	77	0.0002269	2.488333	0.3701498	0.999762	0.0001842	3.5721	3.5714	...........
	157	462	0	79	0.00023	2.523333	0.2937985	1.000051	0.000183	3.5719	3.5714	...........
	161	473	0	81	0.0002297	2.52	0.2994728	0.999603	0.000183	3.5717	3.5714	...........
	165	484	0	83	0.0002293	2.515	0.2957141	0.999862	0.0001824	3.5723	3.5714	...........
	169	495	0	85	0.000229	2.511667	0.2951032	0.999956	0.0001821	3.5717	3.5716	...........
	173	506	0	87	0.0002279	2.5	0.3039416	0.999831	0.0001816	3.5722	3.5714	...........
	177	518	0	89	0.000228	2.501667	0.303445	0.999836	0.0001817	3.5718	3.5719	...........
	181	529	0	91	0.000228	2.501667	0.2936169	0.999876	0.0001812	3.5724	3.5714	...........
	185	540	0	93	0.0002268	2.488333	0.3097224	0.999894	0.0001809	3.5725	3.572	...........
	189	551	0	95	0.0002271	2.491667	0.2944113	0.99964	0.0001805	3.5717	3.5714	...........
	193	562	0	97	0.0002276	2.496667	0.2921962	1.000006	0.0001808	3.5722	3.5724	...........
	197	573	0	99	0.0002268	2.488333	0.2925229	0.999818	0.0001801	3.5717	3.5715	...........
	201	584	0	101	0.0002267	2.486667	0.2915349	0.999878	0.0001799	3.5725	3.572	...........
	205	595	0	103	0.0002263	2.483333	0.2908455	0.999941	0.0001796	3.5718	3.5715	...........
	209	606	0	105	0.000226	2.48	0.2918205	0.999597	0.0001794	3.5726	3.572	...........
	213	617	0	107	0.0002259	2.478333	0.293554	0.999673	0.0001793	3.5718	3.5716	...........
	217	628	0	109	0.0002253	2.471667	0.291328	0.999963	0.0001787	3.5722	3.5716	...........
	221	639	0	111	0.0002249	2.468333	0.2921491	1.000036	0.0001784	3.5718	3.5716	...........
	225	650	0	113	0.0002245	2.463333	0.2937929	0.999674	0.0001781	3.572	3.5716	...........
	229	661	0	115	0.000225	2.468333	0.2899957	1.000076	0.0001784	3.572	3.5724	...........
	233	671	0	117	0.0002236	2.453333	0.3062555	0.99953	0.0001779	3.5721	3.5716	...........
	237	682	0	119	0.0002242	2.46	0.2919165	0.999964	0.0001778	3.572	3.5726	...........
	241	693	0	121	0.0002242	2.46	0.290491	0.999836	0.0001777	3.573	3.5716	...........
	245	704	0	123	0.0002233	2.45	0.2910658	0.999783	0.000177	3.572	3.5725	...........
	249	715	0	125	0.0002231	2.448334	0.293936	0.99976	0.0001769	3.5724	3.57194	...........
	253	726	0	127	0.0002235	2.453333	0.2903447	0.999588	0.0001772	3.572	3.5718	...........
	257	737	0	129	0.0002237	2.455	0.2892897	1.000136	0.0001772	3.5725	3.5716	...........
	261	748	0	131	0.0002228	2.445	0.2922664	0.999973	0.0001766	3.572	3.5722	...........
	265	759	0	133	0.000222	2.436667	0.2902949	0.999736	0.0001758	3.5721	3.5717	...........
	269	770	0	135	0.0002221	2.436667	0.2906469	0.999759	0.0001759	3.5721	3.5728	...........
	273	780	0	137	0.0002213	2.428333	0.291689	1.000046	0.0001753	3.572899	3.5717	...........
	277	791	0	139	0.0002211	2.426667	0.2905088	0.999592	0.0001751	3.572	3.5717	...........
	281	802	0	141	0.000221	2.425	0.2909392	0.999717	0.000175	3.5724	3.5717	...........
	285	813	0	143	0.0002204	2.418333	0.2937966	0.999919	0.0001746	3.572	3.5723	...........
	289	824	0	145	0.0002207	2.421667	0.2946728	0.999824	0.0001749	3.5732	3.5717	...........
	293	834	0	147	0.0002207	2.421667	0.2891503	0.99976	0.0001746	3.5721	3.5726	...........
	297	845	0	149	0.0002213	2.428333	0.2998287	1.000066	0.0001756	3.5728	3.5721	...........
	301	856	0	151	0.000222	2.436667	0.2882696	0.999771	0.0001758	3.572	3.5718	...........
	305	867	0	153	0.0002216	2.431667	0.2899335	0.999973	0.0001754	3.5723	3.5719	...........
	309	878	0	155	0.0002216	2.431667	0.2908738	1.000029	0.0001755	3.572	3.5719	...........
	313	888	0	157	0.0002218	2.433333	0.2868959	0.999871	0.0001754	3.5725	3.5718	...........
	317	899	0	159	0.0002212	2.428333	0.2887517	1.000056	0.0001751	3.5722	3.5719	...........
	321	910	0	161	0.0002225	2.441667	0.2889205	1.000046	0.0001762	3.5726	3.5725	...........
	325	921	0	163	0.0002219	2.435	0.290531	0.99983	0.0001757	3.5721	3.5718	...........
	329	932	0	165	0.0002209	2.425	0.288892	0.999654	0.0001748	3.5728	3.5718	...........
	333	943	0	167	0.0002211	2.426667	0.290793	0.999581	0.000175	3.5722	3.572	...........
	337	954	0	169	0.0002203	2.418333	0.3016127	0.999923	0.0001749	3.5722	3.5719	...........
	341	965	0	171	0.0002201	2.416667	0.3056518	1.000031	0.0001749	3.5722	3.5718	...........
	345	976	0	173	0.0002201	2.416667	0.2894766	0.999966	0.0001742	3.5724	3.572	...........
	349	987	0	175	0.0002194	2.408333	0.3057985	0.999798	0.0001743	3.5721	3.5719	...........
	353	997	0	177	0.0002199	2.413333	0.2857733	0.999488	0.0001738	3.5722	3.572	...........
	357	1008	0	179	0.0002191	2.405	0.2931303	0.999893	0.0001734	3.5722	3.5719	...........
	361	1019	0	181	0.0002195	2.41	0.2881109	0.999681	0.0001736	3.5725	3.572	...........
	365	1030	0	183	0.0002192	2.406667	0.2908736	0.999796	0.0001735	3.5721	3.5719	...........
	369	1040	0	185	0.0002189	2.403333	0.2885972	1.000056	0.000173	3.5723	3.572	...........
	373	1051	0	187	0.0002186	2.4	0.2941306	0.999538	0.000173	3.5723	3.5719	...........
	377	1062	0	189	0.0002193	2.408333	0.288127	0.999786	0.0001734	3.5722	3.5719	...........
	381	1073	0	191	0.0002185	2.398333	0.2889484	0.999644	0.0001727	3.5725	3.5719	...........
	385	1083	0	193	0.0002183	2.396667	0.2892435	0.999691	0.0001725	3.5723	3.5721	...........
	389	1094	0	195	0.0002182	2.395	0.2878876	0.999804	0.0001724	3.5727	3.5725	...........
	393	1105	0	197	0.0002179	2.391667	0.2894839	0.999963	0.0001722	3.5722	3.5719	...........
	397	1116	0	199	0.000218	2.393333	0.2870413	0.999883	0.0001722	3.572425	3.5722	...........
	401	1126	0	201	0.0002177	2.39	0.287855	0.999956	0.0001719	3.5723	3.5721	...........
	405	1137	0	203	0.0002184	2.398333	0.2876785	0.999692	0.0001726	3.573	3.5721	...........
	409	1148	0	205	0.0002182	2.395	0.2880794	0.99983	0.0001724	3.5722	3.572	...........
	413	1158	0	207	0.0002177	2.39	0.2878851	1.000076	0.0001719	3.5724	3.5725	...........
	417	1169	0	209	0.000217	2.383333	0.2868017	0.999649	0.0001713	3.5728	3.572	...........
	421	1180	0	211	0.0002167	2.378333	0.2879465	0.999856	0.0001711	3.5723	3.5722	...........
	425	1190	0	213	0.0002169	2.381667	0.2874219	0.999782	0.0001713	3.5725	3.572	...........
	429	1201	0	215	0.0002169	2.381667	0.2873924	0.999794	0.0001713	3.5723	3.572	...........
	433	1212	0	217	0.0002165	2.376667	0.2881149	0.999986	0.0001709	3.5731	3.5723	...........
	437	1222	0	219	0.0002153	2.363333	0.2854596	0.999986	0.0001697	3.5723	3.572	...........
	441	1233	0	221	0.000215	2.36	0.2878575	0.999553	0.0001695	3.5723	3.572899	...........
	445	1244	0	223	0.0002151	2.361667	0.2849556	1.000036	0.0001696	3.5723	3.572	...........
	449	1254	0	225	0.0002151	2.361667	0.286627	1.000076	0.0001696	3.5724	3.573	...........
	453	1265	0	227	0.0002149	2.358333	0.2851667	0.999642	0.0001693	3.5725	3.5722	...........
	457	1275	0	229	0.0002148	2.358333	0.2864934	0.99972	0.0001693	3.5724	3.572	...........
	461	1286	0	231	0.0002147	2.356667	0.2850257	0.999733	0.0001692	3.5728	3.5728	...........
	465	1297	0	233	0.0002142	2.351667	0.2840523	0.999903	0.0001687	3.5723	3.5721	...........
	469	1308	0	235	0.0002152	2.361667	0.2917768	1.000136	0.0001699	3.573	3.5725	...........
	473	1318	0	237	0.0002143	2.353333	0.2851943	0.999898	0.0001689	3.5728	3.5721	...........
	477	1329	0	239	0.0002138	2.348333	0.2860824	1.000096	0.0001685	3.5724	3.573	...........
	481	1340	0	241	0.0002139	2.348333	0.2861483	1.000126	0.0001686	3.5724	3.5721	...........
	485	1350	0	243	0.0002137	2.346667	0.2827619	0.999607	0.0001682	3.5724	3.5721	...........
	489	1361	0	245	0.0002136	2.345	0.2824662	0.99972	0.0001681	3.5727	3.5726	...........
	493	1371	0	247	0.0002135	2.345	0.2840005	0.999656	0.0001681	3.573	3.5721	...........
	497	1382	0	249	0.0002133	2.341667	0.287709	0.999822	0.000168	3.5724	3.5725	...........
	501	1392	0	251	0.0002133	2.341667	0.2842377	0.999828	0.0001679	3.5725	3.5721	...........
	505	1403	0	253	0.0002139	2.348333	0.2851528	1.000086	0.0001684	3.5724	3.5721	...........
	509	1413	0	255	0.000213	2.338333	0.2834282	0.999943	0.0001676	3.5726	3.5729	...........
	513	1424	0	257	0.0002129	2.338333	0.2871553	0.999876	0.0001678	3.5727	3.5721	...........
	517	1434	0	259	0.0002128	2.336667	0.2853081	1.000061	0.0001676	3.5725	3.5725	...........
	521	1445	0	261	0.0002125	2.333333	0.2850987	0.99955	0.0001673	3.5728	3.572899	...........
	525	1456	0	263	0.0002127	2.335	0.2822672	1.000076	0.0001673	3.572837	3.5722	...........
	529	1466	0	265	0.0002125	2.333333	0.2822822	0.99951	0.0001671	3.5725	3.5721	...........
	533	1476	0	267	0.0002124	2.331667	0.2810384	0.999642	0.0001669	3.5722	3.5721	...........
	537	1487	0	269	0.0002124	2.331667	0.2827774	0.999703	0.000167	3.5725	3.5722	...........
	541	1497	0	271	0.0002124	2.331667	0.2826974	0.999634	0.0001671	3.5726	3.5724	...........
	545	1508	0	273	0.0002121	2.328333	0.283852	0.999722	0.0001668	3.5725	3.5722	...........
	549	1518	0	275	0.0002125	2.333333	0.2816379	0.999602	0.0001671	3.5726	3.5726	...........
	553	1529	0	277	0.0002126	2.335	0.2826289	1.000116	0.0001673	3.573	3.5724	...........
	557	1540	0	279	0.0002126	2.335	0.2827226	1.000066	0.0001672	3.5725	3.5722	...........
	561	1550	0	281	0.0002127	2.335	0.2768734	1.000056	0.000167	3.5725	3.5726	...........
	565	1560	0	283	0.000212	2.328333	0.2804993	0.99968	0.0001666	3.5726	3.5722	...........
	569	1571	0	285	0.0002122	2.33	0.2803668	0.999671	0.0001668	3.5725	3.5722	...........
	573	1581	0	287	0.0002122	2.33	0.2803068	0.999738	0.0001668	3.5731	3.5722	...........
	577	1592	0	289	0.0002116	2.323334	0.2811442	1.000011	0.0001663	3.5725	3.5722	...........
	581	1602	0	291	0.0002113	2.32	0.2857499	0.999598	0.0001662	3.5726	3.5723	...........
	585	1613	0	293	0.0002111	2.318333	0.291671	0.99965	0.0001664	3.5726	3.5722	...........
	589	1623	0	295	0.0002119	2.326667	0.2816697	0.999919	0.0001666	3.5726	3.5724	...........
	593	1634	0	297	0.0002113	2.32	0.2867704	0.999553	0.0001663	3.5728	3.5728	...........
	597	1644	0	299	0.0002111	2.318333	0.2792725	0.999572	0.0001658	3.5726	3.5722	...........
	601	1655	0	301	0.0002114	2.321667	0.2795886	1.000066	0.0001661	3.5731	3.5734	...........
	605	1665	0	303	0.000211	2.316667	0.2812006	0.999624	0.0001657	3.5733	3.5723	...........
	609	1676	0	305	0.0002114	2.321667	0.2840068	1.000076	0.0001663	3.572463	3.5723	...........
	613	1686	0	307	0.0002118	2.326667	0.2792938	0.999846	0.0001664	3.5737	3.5731	...........
	617	1696	0	309	0.000213	2.34	0.2820081	0.999828	0.0001675	3.5728	3.5723	...........
	621	1707	0	311	0.0002124	2.333333	0.280185	0.999482	0.0001669	3.5727	3.5733	...........
	625	1717	0	313	0.0002125	2.333333	0.2799435	0.999586	0.000167	3.5726	3.5722	...........
	629	1728	0	315	0.0002128	2.336667	0.2827487	1.000036	0.0001674	3.5726	3.5724	...........
	633	1738	0	317	0.0002131	2.34	0.2821856	0.999871	0.0001676	3.5731	3.5722	...........
	637	1749	0	319	0.0002129	2.338333	0.2805511	0.999979	0.0001674	3.5725	3.5723	...........
	641	1759	0	321	0.0002122	2.33	0.2853959	0.999719	0.000167	3.5727	3.5729	...........
	645	1770	0	323	0.0002123	2.331667	0.2811645	0.999706	0.0001669	3.5728	3.5723	...........
	649	1780	0	325	0.0002125	2.333333	0.2795282	0.999533	0.000167	3.5727	3.5732	...........
	653	1791	0	327	0.0002125	2.333333	0.2808295	0.999561	0.000167	3.5734	3.5723	...........
	657	1801	0	329	0.000212	2.328333	0.2822695	0.999704	0.0001666	3.5727	3.5723	...........
	661	1812	0	331	0.0002118	2.326667	0.2808635	0.999856	0.0001664	3.5737	3.5729	...........
	665	1822	0	333	0.0002122	2.33	0.2780842	0.999739	0.0001666	3.5728	3.5722	...........
	669	1833	0	335	0.0002113	2.32	0.2907465	0.999592	0.0001664	3.573	3.5723	...........
	673	1843	0	337	0.0002099	2.305	0.2810535	0.999629	0.0001648	3.5732	3.5723	...........
	677	1854	0	339	0.0002102	2.308333	0.2806678	1.000036	0.000165	3.5726	3.5723	...........
	681	1864	0	341	0.0002099	2.305	0.2840427	0.999707	0.0001649	3.5726	3.5733	...........
	685	1874	0	343	0.0002099	2.305	0.2803177	0.999666	0.0001647	3.5734	3.5723	...........
	689	1885	0	345	0.0002096	2.301667	0.2757737	0.999728	0.0001642	3.5726	3.5724	...........
	693	1895	0	347	0.0002096	2.301667	0.2786669	0.999752	0.0001643	3.5731	3.5733	...........
	697	1905	0	349	0.0002097	2.303333	0.27931	0.999761	0.0001645	3.57265	3.5723	...........
	701	1916	0	351	0.0002091	2.296667	0.2787184	0.999926	0.000164	3.5727	3.5724	...........
	705	1926	0	353	0.0002093	2.298333	0.2804664	0.999963	0.0001642	3.5736	3.5723	...........
	709	1937	0	355	0.0002096	2.301667	0.2792588	0.999806	0.0001644	3.5726	3.5723	...........
	713	1947	0	357	0.0002089	2.295	0.2801665	1.000016	0.0001639	3.5727	3.5724	...........
	717	1957	0	359	0.0002094	2.3	0.2872063	0.999856	0.0001646	3.5728	3.5724	...........
	721	1968	0	361	0.0002095	2.301667	0.2816505	0.999808	0.0001645	3.5727	3.5723	...........
	725	1978	0	363	0.0002096	2.301667	0.2825685	0.999746	0.0001646	3.5728	3.5729	...........
	729	1989	0	365	0.0002094	2.3	0.2789935	0.999856	0.0001642	3.5727	3.5724	...........
	733	1999	0	367	0.000209	2.295	0.2801381	1.000196	0.0001639	3.5727	3.5724	...........
	737	2009	0	369	0.0002092	2.298333	0.27587	0.999863	0.0001639	3.5733	3.5726	...........
	741	2020	0	371	0.000209	2.295	0.2793244	1.000076	0.0001639	3.5727	3.5724	...........
	745	2030	0	373	0.0002085	2.29	0.2738944	0.999728	0.0001632	3.5727	3.5724	...........
	749	2040	0	375	0.0002083	2.288333	0.2759108	0.999694	0.0001631	3.5734	3.5723	...........
	753	2051	0	377	0.000208	2.285	0.2805837	0.999869	0.0001631	3.5727	3.5724	...........
	757	2061	0	379	0.0002085	2.29	0.2786335	0.999626	0.0001634	3.5727	3.5729	...........
	761	2071	0	381	0.0002078	2.283333	0.2779813	0.999966	0.0001628	3.573	3.5724	...........
	765	2082	0	383	0.0002074	2.278333	0.2785214	0.999633	0.0001625	3.5727	3.5724	...........
	769	2092	0	385	0.0002077	2.281667	0.276706	1.000086	0.0001627	3.573	3.5724	...........
	773	2102	0	387	0.0002071	2.275	0.2757779	0.999682	0.0001621	3.5731	3.5724	...........
	777	2113	0	389	0.0002076	2.28	0.2763598	0.999592	0.0001626	3.5727	3.5724	...........
	781	2123	0	391	0.0002073	2.276667	0.2753421	0.999736	0.0001622	3.573	3.5725	...........
	785	2133	0	393	0.0002071	2.275	0.2758721	0.999732	0.0001621	3.5731	3.5724	...........
	789	2143	0	395	0.0002072	2.276667	0.27612	0.999631	0.0001622	3.572899	3.5729	...........
	793	2154	0	397	0.0002073	2.276667	0.2784703	0.999646	0.0001623	3.5736	3.5727	...........
	797	2164	0	399	0.0002071	2.275	0.2808769	0.999822	0.0001623	3.5728	3.5724	...........
	801	2174	0	401	0.0002079	2.283333	0.2779613	1.000076	0.0001629	3.5728	3.5733	...........
	805	2185	0	403	0.0002074	2.278333	0.2807194	0.999534	0.0001626	3.572899	3.5725	...........
	809	2195	0	405	0.0002071	2.275	0.2806649	0.999708	0.0001623	3.5728	3.5724	...........
	813	2205	0	407	0.0002076	2.28	0.2757775	0.999578	0.0001625	3.5728	3.5724	...........
	817	2215	0	409	0.0002075	2.28	0.2755	0.999575	0.0001624	3.5726	3.5724	...........
	821	2226	0	411	0.0002067	2.27	0.2899024	1.000021	0.0001623	3.5727	3.5725	...........
	825	2236	0	413	0.0002068	2.271667	0.2764885	0.999969	0.0001618	3.5728	3.5724	...........
	829	2246	0	415	0.0002066	2.27	0.277433	1.000001	0.0001617	3.573	3.5724	...........
	833	2257	0	417	0.0002063	2.266667	0.2804729	0.999455	0.0001616	3.5727	3.5725	...........
	837	2267	0	419	0.0002066	2.27	0.2784919	1.000056	0.0001617	3.5727	3.5728	...........
	841	2277	0	421	0.0002066	2.27	0.2823162	0.999941	0.0001619	3.572899	3.5729	...........
	845	2288	0	423	0.0002069	2.273333	0.2763681	0.999871	0.0001619	3.5728	3.5725	...........
	849	2298	0	425	0.000207	2.275	0.2778494	0.999842	0.0001621	3.5728	3.5725	...........
	853	2308	0	427	0.0002066	2.27	0.2747009	0.999956	0.0001616	3.5728	3.5729	...........
	857	2318	0	429	0.0002068	2.271667	0.2770306	0.999853	0.0001618	3.573	3.5725	...........
	861	2329	0	431	0.0002066	2.27	0.278405	0.999986	0.0001618	3.5727	3.5725	...........
	865	2339	0	433	0.0002065	2.268333	0.2756457	1.000026	0.0001615	3.572899	3.5727	...........
	869	2349	0	435	0.0002066	2.27	0.2752095	0.999931	0.0001616	3.5738	3.5725	...........
	873	2360	0	437	0.0002066	2.27	0.2755044	0.999906	0.0001616	3.5728	3.5725	...........
	877	2370	0	439	0.0002065	2.268333	0.2721604	1.000036	0.0001614	3.5728	3.5735	...........
	881	2380	0	441	0.0002069	2.273333	0.2735723	0.999883	0.0001618	3.5733	3.5725	...........
	885	2390	0	443	0.0002064	2.268333	0.274339	1.000126	0.0001614	3.572899	3.5725	...........
	889	2401	0	445	0.0002061	2.265	0.2785058	0.999512	0.0001613	3.572899	3.5731	...........
	893	2411	0	447	0.0002062	2.265	0.2735527	0.999632	0.0001612	3.5731	3.5725	...........
	897	2421	0	449	0.000206	2.263333	0.2729755	0.999616	0.000161	3.572899	3.5726	...........
	901	2431	0	451	0.0002061	2.265	0.2721256	0.999622	0.0001611	3.5731	3.5725	...........
	905	2441	0	453	0.0002062	2.265	0.2694473	0.999632	0.000161	3.573	3.5725	...........
	909	2452	0	455	0.0002062	2.265	0.2734289	0.999697	0.0001611	3.5728	3.5728	...........
	913	2462	0	457	0.0002052	2.255	0.2769394	1.000016	0.0001605	3.5728	3.5725	...........
	917	2473	0	459	0.0002056	2.26	0.2774051	0.999879	0.0001609	3.5728	3.5727	...........
	921	2483	0	461	0.0002054	2.256667	0.2724479	0.999956	0.0001604	3.5735	3.5726	...........
	925	2493	0	463	0.0002053	2.255	0.2769063	1.000166	0.0001605	3.572899	3.5725	...........
	929	2503	0	465	0.0002053	2.255	0.2712318	1.000066	0.0001602	3.572899	3.5732	...........
	933	2514	0	467	0.0002052	2.255	0.2775684	1.000076	0.0001605	3.573	3.5725	...........
	937	2524	0	469	0.0002053	2.255	0.2761344	1.000016	0.0001604	3.572899	3.5725	...........
	941	2534	0	471	0.0002053	2.255	0.2756633	1.000086	0.0001604	3.572899	3.5725	...........
	945	2544	0	473	0.0002049	2.251667	0.2709918	0.999597	0.0001599	3.5737	3.5736	...........
	949	2554	0	475	0.0002048	2.25	0.27586	0.999731	0.0001601	3.5726	3.5725	...........
	953	2565	0	477	0.0002051	2.253333	0.275217	0.999511	0.0001603	3.5728	3.572899	...........
	957	2575	0	479	0.0002048	2.25	0.274197	0.999616	0.00016	3.5731	3.5727	...........
	961	2585	0	481	0.0002048	2.25	0.2748508	0.999684	0.00016	3.572899	3.5725	...........
	965	2595	0	483	0.000205	2.251667	0.2717597	0.999674	0.00016	3.573	3.5732	...........
	969	2605	0	485	0.0002048	2.25	0.2737658	0.999626	0.00016	3.5728	3.5725	...........
	973	2616	0	487	0.0002045	2.246667	0.2716584	0.999738	0.0001596	3.5728	3.5725	...........
	977	2626	0	489	0.0002045	2.246667	0.27189	0.999831	0.0001596	3.572899	3.5728	...........
	981	2636	0	491	0.0002043	2.245	0.2719299	0.999856	0.0001594	3.5733	3.5726	...........
	985	2646	0	493	0.0002044	2.246667	0.2696409	0.999889	0.0001595	3.572899	3.5725	...........
	989	2656	0	495	0.0002047	2.248333	0.2723918	0.999792	0.0001598	3.573	3.5729	...........
	993	2666	0	497	0.0002043	2.245	0.2707847	0.999933	0.0001594	3.5734	3.5726	...........
	997	2676	0	499	0.0002039	2.24	0.2710453	0.99956	0.0001591	3.5726	3.573	...........
	1001	2687	0	501	0.0002037	2.238333	0.2770521	0.999663	0.0001592	3.5739	3.5727	...........
	1005	2697	0	503	0.0002038	2.24	0.2751124	0.999573	0.0001592	3.5733	3.5726	...........
	1009	2707	0	505	0.0002037	2.238333	0.2721772	0.999537	0.0001589	3.572899	3.5726	...........
	1013	2717	0	507	0.0002039	2.24	0.2739738	0.99955	0.0001592	3.572899	3.5732	...........
	1017	2727	0	509	0.0002046	2.248333	0.2723861	0.999868	0.0001597	3.5736	3.5726	...........
	1021	2737	0	511	0.0002037	2.238333	0.2724693	0.999586	0.0001589	3.5728	3.5726	...........
	1025	2748	0	513	0.0002041	2.241667	0.273068	1.000126	0.0001593	3.5728	3.5729	...........
	1029	2758	0	515	0.0002034	2.235	0.2752416	0.999724	0.0001589	3.5734	3.5731	...........
	1033	2768	0	517	0.0002038	2.238333	0.2745247	0.999582	0.0001591	3.572899	3.5726	...........
	1037	2778	0	519	0.0002043	2.245	0.2747859	0.999956	0.0001596	3.572899	3.5726	...........
	1041	2788	0	521	0.0002036	2.236667	0.2755058	0.999733	0.000159	3.573	3.5725	...........
	1045	2798	0	523	0.0002036	2.236667	0.2750397	0.999653	0.0001589	3.5731	3.5726	...........
	1049	2809	0	525	0.0002039	2.24	0.2759592	0.999591	0.0001592	3.5728	3.5726	...........
	1053	2819	0	527	0.0001981	2.176667	0.3724017	1.000031	0.0001591	3.5734	3.5726	...........
	1057	2829	0	529	0.0002034	2.235	0.2755558	0.999834	0.0001588	3.572899	3.5726	...........
	1061	2840	0	531	0.0002038	2.24	0.2730401	0.999465	0.0001591	3.5731	3.5731	...........
	1065	2850	0	533	0.0002033	2.233333	0.2722596	0.999858	0.0001585	3.5731	3.5726	...........
	1069	2860	0	535	0.000203	2.23	0.2736062	0.999951	0.0001583	3.572899	3.5726	...........
	1073	2870	0	537	0.000203	2.23	0.2844249	0.999971	0.0001588	3.573	3.5729	...........
	1077	2880	0	539	0.0002034	2.235	0.2743445	0.999686	0.0001587	3.5739	3.5734	...........
	1081	2890	0	541	0.0002034	2.235	0.2732358	0.99979	0.0001587	3.5731	3.5726	...........
	1085	2900	0	543	0.000203	2.23	0.273884	1.000071	0.0001583	3.572899	3.5726	...........
	1089	2911	0	545	0.0002029	2.23	0.2730184	1.000031	0.0001583	3.574	3.5727	...........
	1093	2921	0	547	0.0002028	2.228333	0.2756396	1.000006	0.0001583	3.5731	3.5726	...........
	1097	2931	0	549	0.0002038	2.238333	0.2740486	0.999643	0.000159	3.572899	3.5726	...........
	1101	2941	0	551	0.0002029	2.228333	0.2734302	1.000016	0.0001582	3.573	3.5732	...........
	1105	2951	0	553	0.0002033	2.233333	0.2683636	0.999821	0.0001583	3.5733	3.5732	...........
	1109	2961	0	555	0.0002028	2.228333	0.273248	1.000076	0.0001582	3.573	3.5726	...........
	1113	2971	0	557	0.0002028	2.228333	0.2712217	1.000106	0.0001581	3.5726	3.5733	...........
	1117	2981	0	559	0.0002038	2.24	0.2709961	0.999653	0.000159	3.5736	3.5726	...........
	1121	2992	0	561	0.0002026	2.226667	0.2729377	0.999646	0.000158	3.572899	3.5726	...........
	1125	3002	0	563	0.0002028	2.228333	0.269968	1.000016	0.0001581	3.5731	3.5729	...........
	1129	3012	0	565	0.0002028	2.228333	0.2694778	1.000156	0.0001581	3.5732	3.573	...........
	1133	3022	0	567	0.0002022	2.221667	0.2732691	0.999676	0.0001577	3.572899	3.5726	...........
	1137	3032	0	569	0.0002025	2.225	0.2743012	0.999659	0.000158	3.573	3.5726	...........
	1141	3042	0	571	0.0002024	2.223333	0.2697977	0.999633	0.0001577	3.5734	3.5728	...........
	1145	3052	0	573	0.0002025	2.225	0.2729673	0.999649	0.000158	3.5736	3.5732	...........
	1149	3062	0	575	0.0002022	2.221667	0.2784677	0.999802	0.0001579	3.5731	3.5728	...........
	1153	3072	0	577	0.0002022	2.221667	0.2709936	0.999816	0.0001576	3.5726	3.5727	...........
	1157	3082	0	579	0.0002024	2.223333	0.2719671	0.999709	0.0001578	3.5731	3.5726	...........
	1161	3093	0	581	0.0002024	2.223333	0.2724603	0.999678	0.0001578	3.572899	3.5726	...........
	1165	3103	0	583	0.0002022	2.221667	0.2722831	0.999812	0.0001577	3.572899	3.573	...........
	1169	3113	0	585	0.0002021	2.22	0.2707205	0.999858	0.0001574	3.5732	3.5727	...........
	1173	3123	0	587	0.0002019	2.218333	0.2722915	0.999929	0.0001574	3.572899	3.5726	...........
	1177	3133	0	589	0.0002017	2.216667	0.272105	1.000061	0.0001572	3.573	3.5726	...........
	1181	3143	0	591	0.0002019	2.218333	0.2687053	0.999976	0.0001572	3.5735	3.5729	...........
	1185	3153	0	593	0.0002015	2.213333	0.2690073	0.999421	0.0001568	3.5731	3.5726	...........
	1189	3163	0	595	0.0002018	2.216667	0.2691576	1.000086	0.0001571	3.573	3.5726	...........
	1193	3173	0	597	0.0002014	2.213333	0.2703946	0.999517	0.0001569	3.5731	3.5731	...........
	1197	3183	0	599	0.0002015	2.213333	0.2686793	0.999527	0.0001568	3.5736	3.5731	...........
	1201	3193	0	601	0.0002015	2.213333	0.2705176	0.999527	0.0001569	3.5731	3.5726	...........
	1205	3203	0	603	0.0002019	2.218333	0.2694039	0.999963	0.0001572	3.5731	3.5731	...........
	1209	3213	0	605	0.0002016	2.215	0.2712917	1.000086	0.000157	3.5727	3.5726	...........
	1213	3223	0	607	0.0002015	2.213333	0.2683656	0.999586	0.0001568	3.5726	3.5726	...........
	1217	3234	0	609	0.0002022	2.221667	0.2721432	0.999722	0.0001576	3.5739	3.5729	...........
	1221	3244	0	611	0.0002016	2.215	0.2675508	1.000086	0.0001568	3.573	3.5726	...........
	1225	3254	0	613	0.0002013	2.211667	0.2661971	0.99952	0.0001565	3.573	3.5733	...........
	1229	3264	0	615	0.0002007	2.205	0.274743	0.999956	0.0001564	3.5742	3.5733	...........
	1233	3274	0	617	0.000201	2.208333	0.2635278	0.999766	0.0001561	3.573	3.5726	...........
	1237	3284	0	619	0.000201	2.208333	0.2643186	0.999796	0.0001562	3.573	3.5733	...........
	1241	3294	0	621	0.0002006	2.203333	0.2730131	1.000001	0.0001562	3.574	3.5727	...........
	1245	3304	0	623	0.000201	2.208333	0.2635835	0.999802	0.0001562	3.573	3.5726	...........
	1249	3314	0	625	0.000201	2.208333	0.2641892	0.999724	0.0001562	3.5735	3.5729	...........
	1253	3324	0	627	0.000201	2.208333	0.2667642	0.999748	0.0001563	3.5735	3.5726	...........
	1257	3334	0	629	0.0002012	2.21	0.2633513	0.999648	0.0001563	3.573	3.5726	...........
	1261	3344	0	631	0.0002005	2.203333	0.2630313	0.999941	0.0001557	3.5735	3.5734	...........
	1265	3354	0	633	0.0002004	2.201667	0.2678959	1.000016	0.0001559	3.5731	3.5727	...........
	1269	3364	0	635	0.0002001	2.198334	0.2744019	0.99964	0.0001558	3.573	3.5726	...........
	1273	3374	0	637	0.0002004	2.201667	0.2636722	1.000056	0.0001557	3.5733	3.5733	...........
	1277	3384	0	639	0.0002003	2.2	0.2675586	0.99951	0.0001557	3.5733	3.5726	...........
	1281	3394	0	641	0.0001996	2.193333	0.2839346	0.999803	0.0001559	3.572899	3.5726	...........
	1285	3404	0	643	0.0002	2.198334	0.267303	0.999557	0.0001555	3.573	3.5734	...........
	1289	3414	0	645	0.0002004	2.201667	0.2661511	1.000166	0.0001558	3.572899	3.5729	...........
	1293	3424	0	647	0.0002003	2.2	0.2656789	0.999566	0.0001556	3.572899	3.5726	...........
	1297	3434	0	649	0.0001999	2.196667	0.2699082	0.999649	0.0001555	3.573	3.573	...........
	1301	3444	0	651	0.0001998	2.195	0.2640159	0.999742	0.0001551	3.5737	3.5731	...........
	1305	3454	0	653	0.0001996	2.193333	0.2697895	0.999793	0.0001552	3.5731	3.5726	...........
	1309	3464	0	655	0.0001995	2.191667	0.2726601	0.999963	0.0001553	3.573	3.5727	...........
	1313	3474	0	657	0.0001997	2.195	0.2691633	0.999806	0.0001553	3.5733	3.5729	...........
	1317	3484	0	659	0.0001996	2.193333	0.2709296	0.999864	0.0001553	3.5736	3.5726	...........
	1321	3494	0	661	0.0001998	2.195	0.2684219	0.999802	0.0001553	3.572899	3.5726	...........
	1325	3504	0	663	0.0001998	2.195	0.2672839	0.999742	0.0001552	3.572899	3.573	...........
	1329	3514	0	665	0.0001998	2.195	0.2642877	0.999728	0.0001551	3.5738	3.5728	...........
	1333	3524	0	667	0.0002001	2.198334	0.2635436	0.999524	0.0001554	3.572899	3.5726	...........
	1337	3533	0	669	0.0001993	2.19	0.2755939	0.999956	0.0001552	3.572899	3.5734	...........
	1341	3543	0	671	0.0001996	2.193333	0.2668057	0.999933	0.0001551	3.5736	3.5727	...........
	1345	3553	0	673	0.0001997	2.193333	0.2672164	0.999893	0.0001552	3.572899	3.5726	...........
	1349	3563	0	675	0.0001993	2.19	0.268295	1.000006	0.000155	3.5726	3.5731	...........
	1353	3574	0	677	0.0001983	2.178333	0.269486	1.000016	0.0001541	3.5732	3.5727	...........
	1357	3584	0	679	0.0001993	2.19	0.2607426	0.999951	0.0001546	3.573	3.5727	...........
	1361	3594	0	681	0.0001993	2.19	0.264567	1.000051	0.0001547	3.5739	3.5728	...........
	1365	3604	0	683	0.0001993	2.19	0.2637454	0.999956	0.0001547	3.5735	3.5726	...........
	1369	3614	0	685	0.0001991	2.188333	0.2621514	1.000036	0.0001545	3.573	3.5726	...........
	1373	3624	0	687	0.000199	2.186667	0.2698402	0.999531	0.0001547	3.5733	3.5738	...........
	1377	3633	0	689	0.0001995	2.191667	0.2649133	0.999953	0.0001549	3.5735	3.5726	...........
	1381	3643	0	691	0.0001996	2.193333	0.2669597	0.999801	0.0001551	3.572899	3.5726	...........
	1385	3653	0	693	0.0001996	2.193333	0.264298	0.999798	0.000155	3.572899	3.5726	...........
	1389	3663	0	695	0.0001996	2.193333	0.2622593	0.999778	0.0001549	3.5731	3.5728	...........
	1393	3673	0	697	0.0001987	2.183333	0.2770277	0.999614	0.0001548	3.572899	3.5726	...........
	1397	3683	0	699	0.0001995	2.191667	0.2659022	0.999996	0.0001549	3.5726	3.5727	...........
	1401	3693	0	701	0.0001995	2.191667	0.2603096	0.999949	0.0001547	3.5726	3.573	...........
	1405	3703	0	703	0.0001991	2.186667	0.2745884	0.999467	0.000155	3.5742	3.5726	...........
	1409	3713	0	705	0.0001991	2.188333	0.2760739	1.000116	0.0001551	3.5732	3.5727	...........
	1413	3724	0	707	0.0001986	2.181667	0.2622773	0.999686	0.0001541	3.5739	3.5731	...........
	1417	3734	0	709	0.000199	2.186667	0.2668277	0.99948	0.0001546	3.572899	3.5726	...........
	1421	3744	0	711	0.0001992	2.188333	0.2680864	1.000066	0.0001548	3.572899	3.5726	...........
	1425	3754	0	713	0.0001993	2.19	0.2661761	0.999941	0.0001548	3.5735	3.5731	...........
	1429	3764	0	715	0.0001993	2.19	0.273737	1.000076	0.0001552	3.5733	3.5726	...........
	1433	3774	0	717	0.000199	2.186667	0.2684337	0.999478	0.0001546	3.572899	3.5727	...........
	1437	3784	0	719	0.0001992	2.188333	0.2679019	1.000096	0.0001548	3.572899	3.5726	...........
	1441	3794	0	721	0.0001987	2.183333	0.2739936	0.999624	0.0001546	3.573	3.5727	...........
	1445	3804	0	723	0.0001984	2.18	0.2792626	0.999758	0.0001546	3.573	3.5727	...........
	1449	3814	0	725	0.000199	2.186667	0.2645744	0.999568	0.0001545	3.5742	3.5731	...........
	1453	3824	0	727	0.0001977	2.171667	0.2908245	0.999559	0.0001545	3.5733	3.572899	...........
	1457	3834	0	729	0.0001973	2.168333	0.2899806	0.999806	0.0001541	3.573	3.5727	...........
	1461	3844	0	731	0.0001975	2.17	0.2869515	0.999613	0.0001542	3.5731	3.5727	...........
	1465	3854	0	733	0.0001979	2.175	0.2755167	1.000056	0.000154	3.573	3.5727	...........
	1469	3864	0	735	0.0001985	2.18	0.2732993	0.999771	0.0001544	3.5731	3.5727	...........
	1473	3874	0	737	0.0001984	2.18	0.2710939	0.999904	0.0001543	3.5736	3.5737	...........
	1477	3884	0	739	0.0001971	2.165	0.2999724	0.999949	0.0001544	3.5742	3.573	...........
	1481	3894	0	741	0.0001986	2.181667	0.2659089	0.999812	0.0001542	3.5735	3.5734	...........
	1485	3904	0	743	0.0001984	2.18	0.2680638	0.999911	0.0001541	3.5733	3.5727	...........
	1489	3914	0	745	0.0001979	2.175	0.2727224	1.000006	0.0001539	3.5731	3.5731	...........
	1493	3924	0	747	0.0001981	2.176667	0.2714964	1.000016	0.000154	3.5731	3.5732	...........
	1497	3934	0	749	0.0001984	2.18	0.2640143	0.999921	0.0001539	3.5738	3.5735	...........
	1501	3944	0	751	0.0001982	2.178333	0.2678555	0.999869	0.000154	3.5738	3.5732	...........
	1505	3954	0	753	0.0001986	2.181667	0.2680161	0.999822	0.0001543	3.5734	3.5732	...........
	1509	3964	0	755	0.000198	2.175	0.2788678	1.000146	0.0001542	3.5731	3.5732	...........
	1513	3974	0	757	0.0001978	2.173333	0.2795476	0.999526	0.0001541	3.5731	3.573	...........
	1517	3985	0	759	0.0001964	2.158333	0.275309	0.999607	0.0001528	3.5732	3.5728	...........
	1521	3995	0	761	0.0001977	2.171667	0.2666685	0.999543	0.0001534	3.5731	3.5727	...........
	1525	4005	0	763	0.0001979	2.175	0.2671995	1.000106	0.0001537	3.573	3.5727	...........
	1529	4015	0	765	0.0001978	2.173333	0.2674375	0.999432	0.0001536	3.5732	3.5731	...........
	1533	4025	0	767	0.0001975	2.17	0.2699533	0.999598	0.0001534	3.5732	3.5733	...........
	1537	4035	0	769	0.000198	2.175	0.2744136	1.000026	0.000154	3.5738	3.573	...........
	1541	4045	0	771	0.0001981	2.176667	0.2701744	1.000001	0.0001539	3.573	3.5727	...........
	1545	4055	0	773	0.0001978	2.173333	0.2705313	0.999611	0.0001537	3.573	3.5727	...........
	1549	4065	0	775	0.0001976	2.171667	0.2686349	0.999592	0.0001535	3.573	3.5727	...........
	1553	4075	0	777	0.0001972	2.166667	0.2724692	0.999874	0.0001533	3.5732	3.5736	...........
	1557	4085	0	779	0.0001973	2.168333	0.2716608	0.999666	0.0001533	3.5732	3.5733	...........
	1561	4095	0	781	0.0001978	2.173333	0.2649026	0.999428	0.0001534	3.5734	3.5727	...........
	1565	4104	0	783	0.0001976	2.171667	0.2664724	0.99964	0.0001533	3.573	3.5727	...........
	1569	4114	0	785	0.0001978	2.173333	0.2676454	0.999571	0.0001536	3.573	3.5727	...........
	1573	4124	0	787	0.0001975	2.17	0.2686079	0.999653	0.0001534	3.5739	3.5735	...........
	1577	4134	0	789	0.0001973	2.168333	0.2701427	0.99973	0.0001533	3.5728	3.5727	...........
	1581	4144	0	791	0.0001972	2.166667	0.2704538	0.999843	0.0001532	3.5735	3.5727	...........
	1585	4154	0	793	0.0001973	2.168333	0.271554	0.999746	0.0001534	3.5732	3.5727	...........
	1589	4164	0	795	0.0001971	2.165	0.2672777	0.999959	0.0001529	3.5731	3.5732	...........
	1593	4174	0	797	0.0001969	2.163333	0.2658776	0.999966	0.0001527	3.5731	3.5732	...........
	1597	4184	0	799	0.0001971	2.165	0.2657518	1.000006	0.0001529	3.5732	3.5731	...........
	1601	4194	0	801	0.0001966	2.16	0.2678648	0.999458	0.0001525	3.5732	3.5727	...........
	1605	4204	0	803	0.000197	2.165	0.26409	0.999923	0.0001527	3.5731	3.5727	...........
	1609	4214	0	805	0.0001974	2.168333	0.2649412	0.999734	0.0001531	3.5731	3.5727	...........
	1613	4224	0	807	0.0001972	2.166667	0.2703882	0.999756	0.0001532	3.5731	3.5732	...........
	1617	4234	0	809	0.0001975	2.17	0.2661283	0.999673	0.0001532	3.5734	3.5732	...........
	1621	4244	0	811	0.0001972	2.166667	0.2727285	0.999871	0.0001533	3.573	3.5727	...........
	1625	4254	0	813	0.000197	2.165	0.2796068	0.999893	0.0001534	3.573	3.5728	...........
	1629	4264	0	815	0.0001967	2.161667	0.2638252	1.000086	0.0001524	3.573	3.5729	...........
	1633	4273	0	817	0.0001967	2.161667	0.26611	1.000036	0.0001526	3.5737	3.5734	...........
	1637	4283	0	819	0.0001969	2.163333	0.2711504	1.000051	0.0001529	3.5739	3.5731	...........
	1641	4293	0	821	0.000197	2.165	0.2696615	0.999996	0.0001529	3.573	3.5727	...........
	1645	4303	0	823	0.0001972	2.166667	0.2693351	0.999856	0.0001531	3.5728	3.5728	...........
	1649	4313	0	825	0.0001967	2.161667	0.2707359	1.000186	0.0001528	3.573	3.573	...........
	1653	4323	0	827	0.0001966	2.16	0.2679074	0.999536	0.0001526	3.5731	3.5735	...........
	1657	4333	0	829	0.0001963	2.156667	0.2832187	0.999679	0.000153	3.5735	3.5734	...........
	1661	4343	0	831	0.0001969	2.163333	0.2652446	1.000051	0.0001527	3.5736	3.5742	...........
	1665	4353	0	833	0.0001969	2.163333	0.2671986	1.000071	0.0001527	3.5735	3.5727	...........
	1669	4363	0	835	0.0001965	2.158333	0.2705083	0.999543	0.0001525	3.5732	3.5728	...........
	1673	4373	0	837	0.0001969	2.163333	0.2634098	1.000076	0.0001526	3.5731	3.5728	...........
	1677	4383	0	839	0.0001965	2.158333	0.2691692	0.999527	0.0001524	3.5731	3.5736	...........
	1681	4393	0	841	0.0001967	2.161667	0.2628306	1.000166	0.0001524	3.5736	3.5732	...........
	1685	4403	0	843	0.0001967	2.161667	0.2619202	1.000006	0.0001523	3.5731	3.5728	...........
	1689	4412	0	845	0.0001964	2.158333	0.2731914	0.999594	0.0001526	3.5731	3.5728	...........
	1693	4422	0	847	0.0001974	2.168333	0.2628427	0.999792	0.000153	3.573	3.5734	...........
	1697	4432	0	849	0.0001964	2.158333	0.267779	0.999556	0.0001524	3.573325	3.5733	...........
	1701	4442	0	851	0.0001964	2.158333	0.265086	0.999579	0.0001522	3.5733	3.5727	...........
	1705	4453	0	853	0.0001911	2.1	0.3681281	0.999931	0.0001528	3.5731	3.5728	...........
	1709	4463	0	855	0.000197	2.165	0.273505	0.999926	0.0001532	3.5731	3.5728	...........
	1713	4473	0	857	0.0001968	2.163333	0.2689718	1.000041	0.0001528	3.5731	3.5735	...........
	1717	4483	0	859	0.000197	2.165	0.265532	0.999996	0.0001528	3.5731	3.5729	...........
	1721	4492	0	861	0.0001969	2.163333	0.266287	1.000041	0.0001527	3.573	3.5728	...........
	1725	4502	0	863	0.0001959	2.153333	0.2772424	0.999813	0.0001523	3.5731	3.5728	...........
	1729	4512	0	865	0.0001966	2.16	0.2748471	0.999411	0.0001528	3.5731	3.5732	...........
	1733	4522	0	867	0.0001964	2.158333	0.2636213	0.999544	0.0001521	3.5728	3.5733	...........
	1737	4532	0	869	0.0001963	2.156667	0.2631718	0.999621	0.000152	3.5734	3.5741	...........
	1741	4542	0	871	0.0001961	2.155	0.2628992	0.99972	0.0001519	3.5737	3.5728	...........
	1745	4552	0	873	0.0001962	2.156667	0.2665986	0.999631	0.0001521	3.5732	3.5728	...........
	1749	4562	0	875	0.0001963	2.156667	0.2652863	0.999599	0.0001521	3.5732	3.5728	...........
	1753	4572	0	877	0.0001965	2.16	0.2614079	0.999446	0.0001522	3.5732	3.5734	...........
	1757	4581	0	879	0.0001963	2.156667	0.2686822	0.999609	0.0001523	3.5734	3.5728	...........
	1761	4591	0	881	0.0001964	2.158333	0.2661355	0.99956	0.0001523	3.573	3.5728	...........
	1765	4601	0	883	0.0001959	2.153333	0.2641539	0.999806	0.0001518	3.5733	3.5735	...........
	1769	4611	0	885	0.0001961	2.155	0.2662859	0.999754	0.000152	3.5732	3.5739	...........
	1773	4621	0	887	0.0001961	2.155	0.2676612	0.999792	0.0001521	3.5738	3.573	...........
	1777	4631	0	889	0.0001961	2.155	0.2646073	0.999718	0.000152	3.5732	3.5729	...........
	1781	4641	0	891	0.0001961	2.155	0.2724307	0.999706	0.0001523	3.5732	3.5728	...........
	1785	4651	0	893	0.0001961	2.155	0.2618933	0.999662	0.0001518	3.5734	3.5732	...........
	1789	4660	0	895	0.0001957	2.15	0.2708209	1.000096	0.0001517	3.572899	3.5728	...........
	1793	4670	0	897	0.0001959	2.153333	0.2618043	0.999783	0.0001516	3.5739	3.5733	...........
	1797	4680	0	899	0.0001963	2.156667	0.260338	0.999651	0.0001519	3.5732	3.5729	...........
	1801	4690	0	901	0.0001966	2.16	0.261814	0.999528	0.0001522	3.5736	3.5732	...........
	1805	4700	0	903	0.0001959	2.153333	0.2747476	0.999763	0.0001522	3.5734	3.5728	...........
	1809	4709	0	905	0.0001964	2.158333	0.2600264	0.99962	0.000152	3.5731	3.572899	...........
	1813	4719	0	907	0.0001963	2.156667	0.2636466	0.999696	0.0001521	3.5728	3.5739	...........
	1817	4729	0	909	0.0001959	2.153333	0.2623002	0.999798	0.0001517	3.5735	3.5737	...........
	1821	4739	0	911	0.0001958	2.151667	0.2611651	0.999836	0.0001515	3.5733	3.5728	...........
	1825	4749	0	913	0.0001961	2.155	0.2593865	0.999714	0.0001517	3.5732	3.5728	...........
	1829	4758	0	915	0.0001958	2.151667	0.2592275	1.000026	0.0001515	3.5736	3.5735	...........
	1833	4768	0	917	0.0001961	2.155	0.260169	0.999682	0.0001518	3.5733	3.5729	...........
	1837	4778	0	919	0.0001961	2.155	0.2587241	0.999756	0.0001517	3.5732	3.5729	...........
	1841	4788	0	921	0.0001957	2.15	0.2584068	0.999941	0.0001513	3.5732	3.573	...........
	1845	4798	0	923	0.0001957	2.15	0.2613405	0.999986	0.0001514	3.5734	3.5729	...........
	1849	4808	0	925	0.000191	2.098333	0.3492965	0.999856	0.0001516	3.5731	3.5732	...........
	1853	4818	0	927	0.0001959	2.153333	0.2577163	0.999848	0.0001515	3.5733	3.573	...........
	1857	4827	0	929	0.0001953	2.146667	0.2620598	0.999573	0.0001512	3.5731	3.572899	...........
	1861	4837	0	931	0.0001959	2.153333	0.2595958	0.999876	0.0001516	3.572899	3.5732	...........
	1865	4847	0	933	0.0001955	2.148333	0.2585171	1.000066	0.0001511	3.5736	3.5736	...........
	1869	4857	0	935	0.0001949	2.141667	0.2691412	0.999772	0.0001511	3.5735	3.5729	...........
	1873	4867	0	937	0.0001949	2.141667	0.2536541	0.999698	0.0001504	3.5732	3.5729	...........
	1877	4876	0	939	0.0001946	2.138333	0.2569523	0.999953	0.0001503	3.5728	3.574	...........
	1881	4886	0	941	0.0001947	2.14	0.2594683	0.999871	0.0001506	3.5733	3.5739	...........
	1885	4896	0	943	0.0001957	2.15	0.2581357	0.999966	0.0001513	3.5735	3.5729	...........
	1889	4906	0	945	0.0001944	2.136667	0.2804578	0.999996	0.0001512	3.5732	3.5729	...........
	1893	4916	0	947	0.000195	2.143333	0.2624694	0.999723	0.0001509	3.5731	3.5729	...........
	1897	4925	0	949	0.0001949	2.141667	0.2621239	0.999744	0.0001508	3.5732	3.573	...........
	1901	4935	0	951	0.0001944	2.136667	0.2603692	1.000001	0.0001503	3.5736	3.5743	...........
	1905	4945	0	953	0.000193	2.121667	0.2665402	1.000096	0.0001494	3.5732	3.5729	...........
	1909	4955	0	955	0.0001943	2.135	0.2612568	1.000156	0.0001502	3.572899	3.5736	...........
	1913	4965	0	957	0.0001935	2.126667	0.2825465	0.999778	0.0001505	3.5733	3.5729	...........
	1917	4975	0	959	0.0001947	2.14	0.2661503	0.999873	0.0001508	3.5735	3.5742	...........
	1921	4985	0	961	0.0001942	2.135	0.2743855	1.000116	0.0001508	3.5735	3.5731	...........
	1925	4995	0	963	0.0001949	2.141667	0.2611336	0.999672	0.0001507	3.5732	3.5729	...........
	1929	5004	0	965	0.0001945	2.138333	0.2640643	1.000043	0.0001506	3.5732	3.5731	...........
	1933	5014	0	967	0.0001947	2.14	0.2608053	0.999768	0.0001505	3.572899	3.5735	...........
	1937	5024	0	969	0.0001941	2.133333	0.2678271	0.999402	0.0001503	3.5733	3.572999	...........
	1941	5034	0	971	0.0001949	2.141667	0.2622294	0.999674	0.0001507	3.5737	3.5733	...........
	1945	5044	0	973	0.0001948	2.141667	0.26593	0.999792	0.0001509	3.5733	3.5729	...........
	1949	5054	0	975	0.0001943	2.135	0.2619465	1.000036	0.0001502	3.5732	3.5729	...........
	1953	5063	0	977	0.0001945	2.138333	0.2621226	0.999973	0.0001505	3.5734	3.5738	...........
	1957	5073	0	979	0.0001943	2.135	0.2680855	1.000026	0.0001505	3.573	3.5731	...........
	1961	5083	0	981	0.0001941	2.133333	0.2731269	0.999508	0.0001506	3.5743	3.574	...........
	1965	5093	0	983	0.0001944	2.136667	0.2597161	1.000021	0.0001503	3.5733	3.5729	...........
	1969	5103	0	985	0.0001947	2.14	0.2606488	0.999761	0.0001505	3.5732	3.5729	...........
	1973	5113	0	987	0.0001947	2.14	0.2627151	0.999798	0.0001506	3.5732	3.5729	...........
	1977	5122	0	989	0.0001945	2.138333	0.2607081	0.999969	0.0001504	3.5735	3.573	...........
	1981	5132	0	991	0.0001948	2.141667	0.2612261	0.99972	0.0001507	3.572899	3.5734	...........
	1985	5142	0	993	0.0001949	2.141667	0.260494	0.999658	0.0001507	3.5736	3.5741	...........
	1989	5152	0	995	0.0001946	2.138333	0.2718824	0.999916	0.0001509	3.5735	3.5729	...........
	1993	5162	0	997	0.0001946	2.138333	0.2606045	0.999916	0.0001504	3.5733	3.5729	...........
	1997	5172	0	999	0.000195	2.143333	0.2618602	0.999664	0.0001509	3.5732	3.5729	...........
	2000	5179	1	1000	0.0001724	1.94	0.7987766	0.0005202	-5.717423E-005	3.572899	3.5729	...........
STOPREASON	LABEL	Cycle Limit	Stop Reason